field.orientation.x,field.orientation.y,field.orientation.z,field.orientation.w,field.angular_velocity.z,field.linear_acceleration.x,field.linear_acceleration.y,,,,,%time  1759798013049710000
-0.003046162,-0.011635845,0.876491675,-0.481266737,0.001284149,-0.111196715,-0.104715793,,,,,1.76E+18
-0.003041504,-0.011633519,0.87649882,-0.48125381,-0.000934596,-0.107575669,-0.111013653,,,,,1.76E+18
-0.003034827,-0.01163363,0.876498147,-0.481255075,0.00151059,-0.107294868,-0.14017964,,,,,1.76E+18
-0.003029844,-0.011641646,0.876499221,-0.481252956,0.000479816,-0.105390241,-0.157096383,,,,,1.76E+18
-0.003035983,-0.011639012,0.876494371,-0.481261814,0.000584644,-0.110445656,-0.145656493,,,,,1.76E+18
-0.003036496,-0.011630534,0.876483558,-0.481281708,0.001321573,-0.108912421,-0.115895745,,,,,1.76E+18
-0.003040627,-0.011627721,0.876477475,-0.481292828,0.00081818,-0.106431157,-0.101153649,,,,,1.76E+18
-0.003035957,-0.011632226,0.876479198,-0.481289612,0.000726879,-0.10681248,-0.120909283,,,,,1.76E+18
-0.003033509,-0.011639091,0.876482401,-0.481283627,0.001096575,-0.107282281,-0.153070104,,,,,1.76E+18
-0.003038794,-0.011644042,0.876479253,-0.481289207,0.000556194,-0.115028416,-0.159666239,,,,,1.76E+18
-0.003037503,-0.011643754,0.876471175,-0.481303934,0.000442557,-0.115125042,-0.132850912,,,,,1.76E+18
-0.003043458,-0.011633976,0.876470198,-0.481305911,0.00168581,-0.109425297,-0.112199172,,,,,1.76E+18
-0.003045075,-0.011630101,0.876473965,-0.481299134,0.000901573,-0.107110628,-0.10764984,,,,,1.76E+18
-0.003044782,-0.011637033,0.876471257,-0.4813039,0.001385299,-0.111110985,-0.134521194,,,,,1.76E+18
-0.003043884,-0.011643021,0.876470797,-0.481304599,0.0005441,-0.112647232,-0.158783719,,,,,1.76E+18
-0.003052584,-0.011645053,0.876472995,-0.481300492,0.001232358,-0.115918556,-0.149888212,,,,,1.76E+18
-0.003056835,-0.011639883,0.876477082,-0.481293148,0.000529674,-0.113028362,-0.125439956,,,,,1.76E+18
-0.003050837,-0.011634413,0.876477973,-0.481291695,-2.79E-05,-0.104420057,-0.113760463,,,,,1.76E+18
-0.003047161,-0.011635285,0.876475405,-0.481296374,0.000336689,-0.102530365,-0.122664947,,,,,1.76E+18
-0.003050085,-0.011636442,0.876479633,-0.481288627,0.000428584,-0.110844012,-0.154671731,,,,,1.76E+18
-0.003050663,-0.011642182,0.876486663,-0.481275683,0.00117878,-0.117188543,-0.163913541,,,,,1.76E+18
-0.003051546,-0.011642941,0.876489167,-0.481271099,0.000266006,-0.116219472,-0.142930575,,,,,1.76E+18
-0.003051137,-0.011636568,0.876480159,-0.481287659,0.001400915,-0.109691514,-0.11710947,,,,,1.76E+18
-0.003048643,-0.011635814,0.876478767,-0.481290229,3.75E-05,-0.099384899,-0.114785952,,,,,1.76E+18
-0.003045517,-0.011639404,0.876479728,-0.481288413,0.000143779,-0.102533554,-0.13993393,,,,,1.76E+18
-0.003046773,-0.011648043,0.876481636,-0.48128472,-0.000326598,-0.113494903,-0.162482661,,,,,1.76E+18
-0.00304675,-0.011648339,0.876480735,-0.481286354,0.000332638,-0.11748953,-0.157017239,,,,,1.76E+18
-0.003052324,-0.011644999,0.876476437,-0.481294227,0.000294858,-0.116325488,-0.131032186,,,,,1.76E+18
-0.003052028,-0.011646105,0.876467256,-0.481310921,0.001571389,-0.109174242,-0.111533686,,,,,1.76E+18
-0.003049834,-0.011645556,0.876462914,-0.481318854,0.000810871,-0.101603478,-0.123507337,,,,,1.76E+18
-0.003051234,-0.011651208,0.876466329,-0.48131249,0.000562854,-0.10407897,-0.152659839,,,,,1.76E+18
-0.003050544,-0.011651243,0.876476191,-0.481294535,0.000104082,-0.1100078,-0.166216894,,,,,1.76E+18
-0.003054982,-0.011646507,0.876476101,-0.481294785,0.000897178,-0.116432225,-0.145191445,,,,,1.76E+18
-0.003053602,-0.011640308,0.876465937,-0.481313453,0.000714766,-0.112447044,-0.115782522,,,,,1.76E+18
-0.00305443,-0.011634896,0.876460216,-0.481323995,0.000388911,-0.103902793,-0.109631785,,,,,1.76E+18
-0.003047874,-0.011633676,0.876470217,-0.481305856,0.001485127,-0.099642454,-0.13355612,,,,,1.76E+18
-0.003051962,-0.011637426,0.876488859,-0.481271789,-0.000969111,-0.105174434,-0.156725763,,,,,1.76E+18
-0.003052497,-0.011632032,0.876488111,-0.48127328,0.001549458,-0.111635606,-0.155889508,,,,,1.76E+18
-0.003053751,-0.011627618,0.87647937,-0.481289296,0.001073737,-0.110079759,-0.129758354,,,,,1.76E+18
-0.003051952,-0.011619813,0.876477922,-0.481292134,-0.000279853,-0.105625969,-0.104162545,,,,,1.76E+18
-0.003045951,-0.011618413,0.87648286,-0.481283213,0.001236517,-0.103528362,-0.114059838,,,,,1.76E+18
-0.003043572,-0.011621766,0.876490653,-0.481268955,0.000815414,-0.10127579,-0.144469925,,,,,1.76E+18
-0.003046464,-0.011625094,0.876489929,-0.481270174,0.000366006,-0.110625936,-0.157011017,,,,,1.76E+18
-0.003050916,-0.011622783,0.876483591,-0.481281745,0.000650259,-0.114051618,-0.144279043,,,,,1.76E+18
-0.003049945,-0.011614903,0.876477969,-0.481292179,0.000726076,-0.10679502,-0.116082125,,,,,1.76E+18
-0.003051166,-0.011605235,0.876475583,-0.48129675,0.000236949,-0.101635801,-0.102184668,,,,,1.76E+18
-0.003046334,-0.011612158,0.876473813,-0.481299836,0.000583296,-0.101539938,-0.123868497,,,,,1.76E+18
-0.003048838,-0.011619297,0.876474676,-0.481298077,8.06E-05,-0.107888915,-0.149986865,,,,,1.76E+18
-0.003047493,-0.011616715,0.876472324,-0.481302432,0.00077617,-0.110873644,-0.152966128,,,,,1.76E+18
-0.003043246,-0.011615948,0.876468701,-0.481309073,-0.000550788,-0.111852519,-0.13227578,,,,,1.76E+18
-0.003049104,-0.011612342,0.876464592,-0.481316606,5.58E-05,-0.109458391,-0.108057036,,,,,1.76E+18
-0.003043579,-0.01161455,0.876467649,-0.481311022,-0.000292396,-0.105911951,-0.11143335,,,,,1.76E+18
-0.003045725,-0.011619008,0.87647234,-0.481302357,0.00051132,-0.107709349,-0.141768809,,,,,1.76E+18
-0.003043634,-0.011618684,0.87646801,-0.481310263,0.002065919,-0.112830651,-0.156908569,,,,,1.76E+18
-0.003048899,-0.011615557,0.876464156,-0.481317324,0.000467379,-0.115667566,-0.1479635,,,,,1.76E+18
-0.003055873,-0.01161088,0.876471608,-0.481303823,-0.000432953,-0.112477048,-0.114837555,,,,,1.76E+18
-0.003056276,-0.011607353,0.87648059,-0.481287548,0.000262562,-0.107640957,-0.10747504,,,,,1.76E+18
-0.003054773,-0.011617276,0.876478358,-0.481291384,0.001248171,-0.10300145,-0.126590833,,,,,1.76E+18
-0.003051074,-0.011622422,0.876480244,-0.481287847,-1.14E-05,-0.110439042,-0.155055152,,,,,1.76E+18
-0.003056999,-0.011627011,0.876487793,-0.481273951,1.82E-05,-0.118152027,-0.159500372,,,,,1.76E+18
-0.003054617,-0.01162259,0.876492008,-0.481266397,0.000998223,-0.114956157,-0.136970649,,,,,1.76E+18
-0.003054365,-0.011614682,0.876490292,-0.481269714,2.65E-05,-0.108672005,-0.111212934,,,,,1.76E+18
-0.003052417,-0.011610462,0.876484127,-0.481281055,0.000853658,-0.10234519,-0.11417214,,,,,1.76E+18
-0.003048475,-0.011619466,0.876483972,-0.481281147,0.001280695,-0.107156985,-0.14161229,,,,,1.76E+18
-0.003050581,-0.011622735,0.876495422,-0.481260202,-0.000953996,-0.113118481,-0.165228073,,,,,1.76E+18
-0.003051794,-0.011621669,0.876493132,-0.48126439,0.001919543,-0.120670437,-0.152174441,,,,,1.76E+18
-0.003049389,-0.011614949,0.876484843,-0.481279664,0.000944036,-0.116000676,-0.125574285,,,,,1.76E+18
-0.003049791,-0.011614982,0.876476979,-0.481293981,0.001698396,-0.10739033,-0.111891527,,,,,1.76E+18
-0.003041385,-0.011605424,0.876478141,-0.481292149,0.000888357,-0.10068322,-0.126562078,,,,,1.76E+18
-0.003039373,-0.011611041,0.876483313,-0.481282607,0.000481361,-0.107075329,-0.156963225,,,,,1.76E+18
-0.00303181,-0.01161556,0.876489951,-0.481270457,0.000437184,-0.113813728,-0.16575684,,,,,1.76E+18
-0.003033026,-0.011609865,0.876490583,-0.481269436,0.001026196,-0.114355289,-0.142173736,,,,,1.76E+18
-0.003033825,-0.011604315,0.876487016,-0.481276062,-0.000370185,-0.111461819,-0.115210865,,,,,1.76E+18
-0.003025632,-0.011603756,0.876483498,-0.481282532,-0.000668223,-0.104175203,-0.117056219,,,,,1.76E+18
-0.003024012,-0.01161238,0.87648788,-0.481274355,-0.000399363,-0.104271743,-0.140728072,,,,,1.76E+18
-0.003027708,-0.011615665,0.876499152,-0.481253723,0.00121621,-0.109644022,-0.163487494,,,,,1.76E+18
-0.003026603,-0.011619565,0.876505737,-0.481241642,0.000544114,-0.11530687,-0.157767356,,,,,1.76E+18
-0.003030445,-0.011616808,0.87649763,-0.48125645,0.000465325,-0.112533003,-0.126322433,,,,,1.76E+18
-0.003036159,-0.01161216,0.876489724,-0.481270926,0.000798789,-0.106994437,-0.107882672,,,,,1.76E+18
-0.003032958,-0.01161302,0.876498844,-0.481254315,0.00039851,-0.101472296,-0.121144961,,,,,1.76E+18
-0.003031348,-0.011619972,0.876512496,-0.481229292,0.000655385,-0.103909971,-0.150165974,,,,,1.76E+18
-0.003038043,-0.011625848,0.876512858,-0.481228449,0.001693132,-0.111944378,-0.164646748,,,,,1.76E+18
-0.003034608,-0.01162119,0.876506807,-0.481239604,0.000310321,-0.112915233,-0.143292876,,,,,1.76E+18
-0.00303136,-0.011618045,0.876500893,-0.481250471,0.000911374,-0.102595624,-0.114231784,,,,,1.76E+18
-0.003024946,-0.01162542,0.876509743,-0.481234215,0.001347887,-0.083276933,-0.146444499,,,,,1.76E+18
-0.003042537,-0.011643484,0.87651297,-0.48122779,0.004203923,-0.146370835,-0.212063233,,,,,1.76E+18
-0.003037438,-0.011586256,0.876486517,-0.481277382,-0.002398166,-0.124883704,0.027052527,,,,,1.76E+18
-0.00291096,-0.011619987,0.876493195,-0.481265188,-0.014732109,-0.090768838,0.025556873,,,,,1.76E+18
-0.002706736,-0.011677189,0.876534062,-0.481190561,-0.03195582,0.117382045,0.197212738,,,,,1.76E+18
-0.002412909,-0.011844414,0.876625331,-0.481021742,-0.0596129,-0.034323708,0.225901276,,,,,1.76E+18
-0.002066665,-0.012010068,0.876773693,-0.480748769,-0.076306023,0.237905438,0.27576656,,,,,1.76E+18
-0.00195343,-0.012167648,0.876740208,-0.480806344,-0.019797636,-0.10457388,0.306040256,,,,,1.76E+18
-0.001516419,-0.012505573,0.876848268,-0.480602149,-0.043102961,-0.000369736,-0.094779463,,,,,1.76E+18
-0.001139455,-0.012943836,0.877034281,-0.480252046,-0.029467082,0.004601785,-0.803836404,,,,,1.76E+18
-0.001113046,-0.013181767,0.877212312,-0.479920371,-0.027103616,-0.149451562,-0.95557007,,,,,1.76E+18
-0.001238661,-0.013209096,0.877274468,-0.479805683,-0.013820201,-0.511529901,-0.605737251,,,,,1.76E+18
-0.001361011,-0.013290838,0.877276908,-0.479798633,0.009747156,-0.690216877,-0.684362125,,,,,1.76E+18
-0.00143562,-0.013399321,0.877229719,-0.479881671,0.033572432,-0.662272278,-0.749914544,,,,,1.76E+18
-0.00148138,-0.013395948,0.877142137,-0.480041692,0.055548999,-0.403897014,-0.647759695,,,,,1.76E+18
-0.001564044,-0.013237081,0.877082743,-0.480154346,0.065180309,0.13963128,-0.560420877,,,,,1.76E+18
-0.001916453,-0.012754279,0.876980174,-0.480353443,0.026072301,0.399986511,0.402965918,,,,,1.76E+18
-0.00196008,-0.012539086,0.876794887,-0.480697052,0.040476881,-0.003094763,0.461385799,,,,,1.76E+18
-0.002174116,-0.012260056,0.876679594,-0.480913562,0.048230641,0.168535574,0.028017748,,,,,1.76E+18
-0.002365126,-0.011832443,0.876643735,-0.480988733,0.016811848,0.26592941,0.133248789,,,,,1.76E+18
-0.002542583,-0.011607486,0.876646236,-0.48098875,-0.009819562,0.132542967,0.183218134,,,,,1.76E+18
-0.002579935,-0.011710117,0.87662489,-0.481024967,-0.027617376,-0.493464635,0.101219086,,,,,1.76E+18
-0.00219745,-0.011884453,0.876762458,-0.4807718,-0.039535478,-0.09835022,-0.389923002,,,,,1.76E+18
-0.002147597,-0.011948296,0.876926362,-0.480471417,-0.032994892,0.246249345,-0.442776968,,,,,1.76E+18
-0.002239427,-0.011994903,0.877008575,-0.480319755,-0.04015705,-0.194772274,-0.119642871,,,,,1.76E+18
-0.002288077,-0.012013899,0.877054371,-0.480235423,-0.041758213,-0.318694756,0.045550803,,,,,1.76E+18
-0.002293063,-0.011978742,0.877033807,-0.48027383,-0.032707889,-0.283686403,0.280331111,,,,,1.76E+18
-0.002092875,-0.012050056,0.877021511,-0.480295415,-0.029066034,-0.211060013,0.257316902,,,,,1.76E+18
-0.001853685,-0.012217839,0.877040355,-0.480257748,-0.011945163,0.10061597,0.044864589,,,,,1.76E+18
-0.001736628,-0.012390935,0.877023462,-0.4802846,0.015616758,0.026366424,-0.181281391,,,,,1.76E+18
-0.001704657,-0.012528899,0.876986772,-0.480348126,0.026208617,-0.310258175,-0.42877002,,,,,1.76E+18
-0.001617743,-0.01270595,0.876969965,-0.48037446,0.031094877,-0.27343184,-0.600846161,,,,,1.76E+18
-0.001663686,-0.012698865,0.876939937,-0.480429305,0.038932588,-0.268670926,-0.684761701,,,,,1.76E+18
-0.001736947,-0.01262131,0.876930899,-0.480447587,0.0371904,-0.117081614,-0.668641055,,,,,1.76E+18
-0.001970812,-0.012497236,0.876917726,-0.480473971,0.039033428,-0.023400814,-0.590398631,,,,,1.76E+18
-0.002243596,-0.012328156,0.87689427,-0.480519951,0.031965263,-0.20382744,-0.474203326,,,,,1.76E+18
-0.002399545,-0.01210888,0.876862196,-0.480583298,0.017376089,0.059285855,-0.049591835,,,,,1.76E+18
-0.002549457,-0.011857301,0.876799981,-0.480702297,0.007258451,0.078525494,0.193466161,,,,,1.76E+18
-0.002597023,-0.011659826,0.87672337,-0.480846583,0.001501106,-0.020236129,0.30302837,,,,,1.76E+18
-0.002673127,-0.011467301,0.87668518,-0.480920421,0.005294186,0.07212336,0.192384053,,,,,1.76E+18
-0.002768295,-0.01135431,0.876672739,-0.480945241,-0.00812851,-0.06041442,0.154961979,,,,,1.76E+18
-0.002672387,-0.011420798,0.876697355,-0.480899335,-0.010058052,-0.233569287,-0.175979666,,,,,1.76E+18
-0.002650046,-0.011462305,0.876746241,-0.48080934,-0.006223812,-0.085159761,-0.357764394,,,,,1.76E+18
-0.002686083,-0.01144646,0.876780732,-0.480746619,-0.003958418,-0.075646132,-0.282560942,,,,,1.76E+18
-0.002775432,-0.011424308,0.876783334,-0.480741893,0.0010089,-0.200624999,-0.204824923,,,,,1.76E+18
-0.002916481,-0.011358904,0.876754756,-0.480794725,0.007097528,-0.23191924,-0.110175593,,,,,1.76E+18
-0.003053042,-0.011273594,0.876697631,-0.480900041,0.014209042,-0.207859799,-0.047698539,,,,,1.76E+18
-0.003144863,-0.011215244,0.876643306,-0.480999836,0.015995111,-0.17344229,-0.070152896,,,,,1.76E+18
-0.003202019,-0.011128884,0.876578199,-0.481120106,0.020526761,-0.088095564,-0.053534357,,,,,1.76E+18
-0.003231111,-0.011027642,0.876492072,-0.481279128,0.025055051,-0.047135555,0.026762969,,,,,1.76E+18
-0.003237601,-0.010947103,0.876425318,-0.481402472,0.024139227,0.009343285,0.033385601,,,,,1.76E+18
-0.003266364,-0.010887705,0.876389066,-0.481469619,0.018674143,-0.027172045,-0.070907159,,,,,1.76E+18
-0.003297317,-0.010868529,0.876365641,-0.481512477,0.012647606,-0.119504789,-0.14446122,,,,,1.76E+18
-0.003315045,-0.010866275,0.876378464,-0.481489068,0.009045986,-0.086029523,-0.329124333,,,,,1.76E+18
-0.003430743,-0.010857243,0.876370544,-0.481502876,0.010575207,-0.169805339,-0.256777389,,,,,1.76E+18
-0.003492268,-0.010838334,0.876373199,-0.481498028,0.006164178,-0.129753274,-0.172869384,,,,,1.76E+18
-0.003547612,-0.010784325,0.876366385,-0.481511238,0.006223867,-0.059872196,-0.080143968,,,,,1.76E+18
-0.003551515,-0.01073749,0.876366011,-0.481512936,-0.003137098,-0.042854806,-0.01023353,,,,,1.76E+18
-0.003531528,-0.010696106,0.876382036,-0.481484838,-0.008101172,0.00696704,-0.010244666,,,,,1.76E+18
-0.00353455,-0.010704005,0.876406069,-0.481440894,-0.011807008,-0.082397852,-0.025070133,,,,,1.76E+18
-0.003477558,-0.010747793,0.876442856,-0.481373361,-0.015958782,-0.147014094,-0.075463026,,,,,1.76E+18
-0.003414659,-0.010797391,0.876487639,-0.481291155,-0.018282812,-0.104923451,-0.117377635,,,,,1.76E+18
-0.003353763,-0.010850657,0.876531958,-0.481209665,-0.016373279,-0.101001175,-0.129247953,,,,,1.76E+18
-0.003320077,-0.01089424,0.876575792,-0.481129062,-0.014258038,-0.115549377,-0.147954866,,,,,1.76E+18
-0.003310621,-0.010916327,0.876606398,-0.481072861,-0.012994268,-0.120934713,-0.099781913,,,,,1.76E+18
-0.003287592,-0.01093345,0.876615128,-0.481056721,-0.012146975,-0.121120116,-0.025521136,,,,,1.76E+18
-0.003258108,-0.010972699,0.876610415,-0.481064617,-0.01337093,-0.132715084,0.048871786,,,,,1.76E+18
-0.003205404,-0.011045587,0.87659085,-0.481098952,-0.011252668,-0.168430143,0.106315016,,,,,1.76E+18
-0.003073967,-0.011159961,0.876596059,-0.48108768,-0.009682211,-0.127916197,-0.011547122,,,,,1.76E+18
-0.002979865,-0.011247686,0.876616166,-0.48104959,-0.005319002,-0.067068359,-0.150391264,,,,,1.76E+18
-0.002909643,-0.011346677,0.876639582,-0.481005022,-0.001383414,-0.131741761,-0.220301696,,,,,1.76E+18
-0.002845174,-0.011422109,0.876662011,-0.480962743,0.003478921,-0.156739691,-0.313041276,,,,,1.76E+18
-0.002826927,-0.011468773,0.876654457,-0.480975508,0.00881864,-0.17024336,-0.248048776,,,,,1.76E+18
-0.002766222,-0.011488724,0.876645317,-0.480992042,0.008310558,-0.100160504,-0.165786923,,,,,1.76E+18
-0.002729515,-0.011501911,0.876655329,-0.480973689,0.008004713,-0.03959925,-0.179615561,,,,,1.76E+18
-0.002688475,-0.01151252,0.876682827,-0.480923544,7.32E-06,-0.024968095,-0.151340098,,,,,1.76E+18
-0.002669632,-0.011539739,0.876711788,-0.480870199,-0.004948174,-0.041880384,-0.162092034,,,,,1.76E+18
-0.002652437,-0.011580678,0.876735569,-0.48082595,-0.008404683,-0.111980547,-0.160504948,,,,,1.76E+18
-0.002623774,-0.011627885,0.876766808,-0.480768003,-0.010405371,-0.115867268,-0.142684437,,,,,1.76E+18
-0.002606044,-0.011661769,0.87681007,-0.480688375,-0.010219911,-0.111623541,-0.160290947,,,,,1.76E+18
-0.002592527,-0.011693694,0.876847771,-0.480618896,-0.009661798,-0.118364801,-0.161051482,,,,,1.76E+18
-0.002585775,-0.011731532,0.87686102,-0.480593837,-0.008716429,-0.11959956,-0.144848195,,,,,1.76E+18
-0.002568393,-0.011756821,0.87685632,-0.480601888,-0.006058065,-0.12006869,-0.087523921,,,,,1.76E+18
-0.002528314,-0.011786012,0.876855152,-0.480603516,-0.004037181,-0.099257442,-0.049258289,,,,,1.76E+18
-0.002496399,-0.011821737,0.876857453,-0.480598607,-0.003435448,-0.104600508,-0.058516433,,,,,1.76E+18
-0.002460251,-0.011865478,0.876857871,-0.480596953,-0.003734653,-0.112079292,-0.061353786,,,,,1.76E+18
-0.002397926,-0.011915697,0.876862989,-0.480586688,-0.00260912,-0.092400868,-0.108037514,,,,,1.76E+18
-0.002314466,-0.011977158,0.876869321,-0.480574017,-0.001503748,-0.055361541,-0.130268669,,,,,1.76E+18
-0.002246489,-0.012050613,0.876879077,-0.480554701,-0.002007347,-0.087891067,-0.178567331,,,,,1.76E+18
-0.002188986,-0.012132702,0.876897809,-0.480518718,0.00015425,-0.11385395,-0.246995752,,,,,1.76E+18
-0.002158827,-0.012207688,0.876941629,-0.480436979,-0.000170106,-0.142535695,-0.353345488,,,,,1.76E+18
-0.002144933,-0.012253363,0.876995667,-0.48033723,0.00077561,-0.136906161,-0.427052644,,,,,1.76E+18
-0.002163081,-0.012251539,0.877024472,-0.480284599,0.005213939,-0.111669399,-0.413777175,,,,,1.76E+18
-0.00223029,-0.012191564,0.877025169,-0.480284546,0.008612788,-0.109188006,-0.308143679,,,,,1.76E+18
-0.002337842,-0.012089339,0.877010485,-0.480313431,0.011888955,-0.12653288,-0.159966691,,,,,1.76E+18
-0.002433537,-0.01197708,0.876977004,-0.480376895,0.012936158,-0.119546738,-0.022961415,,,,,1.76E+18
-0.00251478,-0.011880142,0.876927368,-0.480469489,0.013072493,-0.076365482,0.022578436,,,,,1.76E+18
-0.002565581,-0.011809295,0.876868492,-0.480578408,0.012805189,-0.071214554,0.03732411,,,,,1.76E+18
-0.002567516,-0.011758044,0.876817673,-0.480672368,0.010265705,-0.068905671,0.044526616,,,,,1.76E+18
-0.002561623,-0.011735974,0.876778251,-0.480744843,0.005692679,-0.089559979,0.058878591,,,,,1.76E+18
-0.002531346,-0.011749416,0.876744424,-0.480806363,0.000889581,-0.121267674,0.067386806,,,,,1.76E+18
-0.002463678,-0.011817812,0.876731704,-0.480828233,-0.006659237,-0.07958285,0.049234368,,,,,1.76E+18
-0.002355704,-0.011925141,0.876747689,-0.480796976,-0.011402498,-0.02633758,-0.015219396,,,,,1.76E+18
-0.002233316,-0.01204986,0.876792812,-0.480712158,-0.01792255,0.00246208,-0.067114267,,,,,1.76E+18
-0.002100634,-0.012206748,0.876848347,-0.48060749,-0.02186043,-0.057894543,-0.124199288,,,,,1.76E+18
-0.001951546,-0.012375556,0.876885686,-0.48053567,-0.01295633,-0.133924,-0.21293612,,,,,1.76E+18
-0.001817673,-0.012558046,0.876913316,-0.480481037,-0.001474102,-0.1659161,-0.32672825,,,,,1.76E+18
-0.001688055,-0.012723812,0.876961429,-0.480389329,-0.003398058,-0.15928503,-0.416548489,,,,,1.76E+18
-0.001607208,-0.012839425,0.877024448,-0.480271469,-0.00480713,-0.157714013,-0.491893733,,,,,1.76E+18
-0.001581275,-0.012881881,0.877085255,-0.480159361,-0.000848981,-0.091177532,-0.481783901,,,,,1.76E+18
-0.001616907,-0.012867883,0.877127945,-0.48008163,0.005963154,-0.074659872,-0.437248613,,,,,1.76E+18
-0.001720735,-0.012785467,0.877131426,-0.480077111,0.012584454,-0.129119376,-0.337455083,,,,,1.76E+18
-0.001860644,-0.012650956,0.877090583,-0.480154768,0.018118652,-0.173204528,-0.211855397,,,,,1.76E+18
-0.001986573,-0.012508786,0.877022158,-0.480282957,0.020931328,-0.155739339,-0.067119454,,,,,1.76E+18
-0.002079546,-0.012379195,0.876953455,-0.480411354,0.019935837,-0.13652732,0.034998663,,,,,1.76E+18
-0.002117859,-0.012293163,0.876892734,-0.48052422,0.017195255,-0.017484972,0.091353032,,,,,1.76E+18
-0.002139512,-0.012246253,0.876826068,-0.480646958,0.013552244,-0.011493557,0.107870121,,,,,1.76E+18
-0.002163092,-0.01222957,0.876765887,-0.480757048,0.008155174,-0.056430816,0.12975032,,,,,1.76E+18
-0.002153708,-0.01226265,0.876737586,-0.480807856,0.003482627,-0.079586817,0.033747528,,,,,1.76E+18
-0.002121413,-0.012300182,0.876735907,-0.480810103,-0.003075456,-0.061065521,-0.015724422,,,,,1.76E+18
-0.00206971,-0.012345218,0.87676437,-0.480757268,-0.007380088,-0.074030577,-0.167907456,,,,,1.76E+18
-0.001954296,-0.012468887,0.876827767,-0.480638924,-0.013613055,-0.0715344,-0.304257693,,,,,1.76E+18
-0.001838209,-0.012617735,0.876924637,-0.480458733,-0.008534649,-0.088577573,-0.589708735,,,,,1.76E+18
-0.001814917,-0.012663277,0.877014757,-0.480293101,-0.000957937,-0.161147837,-0.692065199,,,,,1.76E+18
-0.00185046,-0.01264843,0.877093808,-0.480148982,0.002351242,-0.14435636,-0.655475327,,,,,1.76E+18
-0.002026503,-0.012548114,0.877146761,-0.480054161,0.011408239,-0.183720985,-0.641289483,,,,,1.76E+18
-0.002251305,-0.012361507,0.877152288,-0.480047903,0.016642941,-0.197780392,-0.451811228,,,,,1.76E+18
-0.002487145,-0.012125672,0.877139304,-0.480076477,0.02139665,-0.060197115,-0.347405912,,,,,1.76E+18
-0.002757552,-0.011848323,0.877136333,-0.480087353,0.010039953,-0.013682821,-0.224500378,,,,,1.76E+18
-0.003087901,-0.011503374,0.877146663,-0.480074857,-0.009895123,-0.06670817,0.027662492,,,,,1.76E+18
-0.00343071,-0.01117165,0.877084875,-0.480193238,0.006263267,-0.222257932,0.181330667,,,,,1.76E+18
-0.003699391,-0.010881603,0.876984746,-0.480380746,0.019402273,-0.237971682,0.179658087,,,,,1.76E+18
-0.003910082,-0.010620228,0.876850333,-0.480630228,0.028716294,-0.170158721,0.236994648,,,,,1.76E+18
-0.004033914,-0.010412982,0.876696568,-0.480914155,0.034405116,-0.112969468,0.329464115,,,,,1.76E+18
-0.00408681,-0.010310045,0.876593538,-0.4811037,0.031168256,-0.026790227,0.211145023,,,,,1.76E+18
-0.00414254,-0.010257922,0.876516633,-0.481244435,0.024365101,0.033693428,0.187685959,,,,,1.76E+18
-0.004179794,-0.010274754,0.876434243,-0.481393785,0.016128456,-0.078212527,0.192508664,,,,,1.76E+18
-0.004140045,-0.010337917,0.876361273,-0.481525603,0.008281421,-0.206334619,0.154844861,,,,,1.76E+18
-0.003997007,-0.010406274,0.876333771,-0.481575389,-0.002187908,-0.043228263,0.15144062,,,,,1.76E+18
-0.003830349,-0.010478877,0.876345482,-0.481553858,-0.012414705,0.053880818,0.145117709,,,,,1.76E+18
-0.003643584,-0.010593367,0.876380937,-0.481488274,-0.022086034,-0.001323411,0.106310021,,,,,1.76E+18
-0.003401032,-0.010746169,0.876446948,-0.481366493,-0.032554895,-0.043123399,0.034563418,,,,,1.76E+18
-0.003095696,-0.010971139,0.876612049,-0.481062747,-0.046047721,0.046783215,-0.301644155,,,,,1.76E+18
-0.00283478,-0.011342884,0.876747107,-0.48080954,-0.040926456,-0.225878914,-0.418431688,,,,,1.76E+18
-0.002633202,-0.011685816,0.876859108,-0.480598183,-0.011246693,-0.265414271,-0.721794474,,,,,1.76E+18
-0.002481077,-0.011851365,0.876987058,-0.480361416,-0.023652453,-0.0872211,-0.527658767,,,,,1.76E+18
-0.002367923,-0.012014586,0.877086839,-0.480175718,-0.025051445,-0.234941415,-0.406733915,,,,,1.76E+18
-0.002262545,-0.012054462,0.877186772,-0.479992644,-0.023317009,-0.007808616,-0.298887312,,,,,1.76E+18
-0.002238225,-0.012031935,0.877280277,-0.479822402,-0.019024098,0.055319547,-0.318348809,,,,,1.76E+18
-0.002280412,-0.01203642,0.877330846,-0.479729623,-0.01195136,-0.112194049,-0.237616145,,,,,1.76E+18
-0.002376604,-0.011998803,0.877328674,-0.479734069,-0.000972196,-0.301201882,-0.182320815,,,,,1.76E+18
-0.002484109,-0.011922687,0.87725811,-0.479864447,0.010520861,-0.281165453,0.047303894,,,,,1.76E+18
-0.002571429,-0.011845949,0.877157245,-0.480050236,0.019175351,-0.233251924,0.12450816,,,,,1.76E+18
-0.002658174,-0.011780904,0.877051871,-0.480243855,0.024295488,-0.190682304,0.146258654,,,,,1.76E+18
-0.002683177,-0.01174026,0.876961045,-0.480410546,0.030988468,-0.068334285,0.058353706,,,,,1.76E+18
-0.00268882,-0.011728032,0.876851172,-0.480611325,0.027877009,-0.02839207,0.20934709,,,,,1.76E+18
-0.002575161,-0.011788034,0.87674247,-0.480808748,0.028011451,-0.05434582,0.145744372,,,,,1.76E+18
-0.002429216,-0.011902315,0.876670378,-0.480938127,0.021703321,-0.043761297,0.041785753,,,,,1.76E+18
-0.002301042,-0.012009023,0.876643971,-0.480984237,0.018084001,-0.0707202,-0.145227207,,,,,1.76E+18
-0.002218374,-0.012063677,0.876677295,-0.480922517,0.009179063,-0.015971922,-0.340718845,,,,,1.76E+18
-0.002150967,-0.012171244,0.876752844,-0.480782367,-0.001696822,-0.011268321,-0.493192525,,,,,1.76E+18
-0.001984275,-0.012373447,0.876856145,-0.480589493,0.005637335,-0.113548239,-0.830802843,,,,,1.76E+18
-0.001947803,-0.012478406,0.877016954,-0.480293408,0.000354803,0.009069304,-0.998814245,,,,,1.76E+18
-0.001959262,-0.012437404,0.87715894,-0.480035068,-0.007888439,-0.023642225,-0.783626845,,,,,1.76E+18
-0.00216489,-0.012298301,0.87724733,-0.479876221,-0.009436886,-0.140032882,-0.541972476,,,,,1.76E+18
-0.002373632,-0.012143844,0.877342039,-0.479705992,-0.015724957,-0.184012775,-0.466569264,,,,,1.76E+18
-0.002577919,-0.011923047,0.877433504,-0.479543159,-0.009609622,-0.059783872,-0.485629702,,,,,1.76E+18
-0.002885272,-0.011628108,0.87751336,-0.479402509,-0.016338697,-0.089441048,-0.358281473,,,,,1.76E+18
-0.003217097,-0.011275172,0.877584207,-0.479279125,-0.025709257,-0.109124089,-0.175900165,,,,,1.76E+18
-0.003610728,-0.010838472,0.877561691,-0.479327621,-0.016989728,-0.200699035,0.300093117,,,,,1.76E+18
-0.003975884,-0.010384196,0.87744141,-0.479554932,-0.001387184,-0.286397323,0.585366263,,,,,1.76E+18
-0.004255751,-0.009986588,0.877270805,-0.479872994,0.020410795,-0.194183599,0.584443757,,,,,1.76E+18
-0.004652169,-0.009699982,0.877084752,-0.480215166,0.042120192,0.01316862,0.472710398,,,,,1.76E+18
-0.005022545,-0.009616435,0.876805039,-0.480723643,0.047791347,-0.534756484,0.648823822,,,,,1.76E+18
-0.004943603,-0.00961869,0.876673103,-0.480964981,0.03613482,-0.2251518,0.272331894,,,,,1.76E+18
-0.004788898,-0.00964493,0.8765737,-0.481147161,0.038910795,0.206658033,0.227744646,,,,,1.76E+18
-0.004612363,-0.009723555,0.876548433,-0.481193332,0.020247594,0.131635531,-0.062429722,,,,,1.76E+18
-0.004634091,-0.009784747,0.876531578,-0.481222585,0.012982998,0.017234985,-0.093243623,,,,,1.76E+18
-0.00469049,-0.00975555,0.876516239,-0.481250571,0.000429275,-0.221105342,-0.049563968,,,,,1.76E+18
-0.004578713,-0.009801528,0.8765566,-0.481177194,-0.013755003,-0.138217724,-0.08277122,,,,,1.76E+18
-0.004296026,-0.010072318,0.876649708,-0.481004555,-0.026323149,-0.066347011,-0.181856751,,,,,1.76E+18
-0.003967443,-0.010352809,0.876772056,-0.480778369,-0.025330018,-0.0346377,-0.369899816,,,,,1.76E+18
-0.003760046,-0.010517121,0.876904043,-0.480535692,-0.027732193,0.010638288,-0.414735843,,,,,1.76E+18
-0.003579067,-0.010693168,0.877017132,-0.480326761,-0.041288897,-0.115337552,-0.229808454,,,,,1.76E+18
-0.003437629,-0.010832008,0.877127453,-0.480123195,-0.046579674,-0.183084533,-0.077348288,,,,,1.76E+18
-0.003204026,-0.011001214,0.87725764,-0.479883049,-0.046440285,-0.101612904,-0.111838947,,,,,1.76E+18
-0.003008201,-0.011162765,0.877384838,-0.479647986,-0.036055233,-0.006809401,-0.220613151,,,,,1.76E+18
-0.00294539,-0.011285002,0.877480796,-0.479469943,-0.034823503,-0.080390363,-0.179264034,,,,,1.76E+18
-0.002909919,-0.011396293,0.877534109,-0.479369946,-0.027037991,-0.204219595,-0.115921896,,,,,1.76E+18
-0.002881256,-0.011475724,0.877540462,-0.479356593,-0.010950461,-0.304635206,-0.065826678,,,,,1.76E+18
-0.002792962,-0.01147721,0.877519084,-0.479396215,0.003622526,-0.214933441,-0.013931247,,,,,1.76E+18
-0.002731184,-0.011491097,0.877473885,-0.479478963,0.017811323,-0.119455435,-0.061491526,,,,,1.76E+18
-0.00272487,-0.011523153,0.877392179,-0.479627727,0.026786042,-0.17493098,-0.041805796,,,,,1.76E+18
-0.002697072,-0.011555939,0.877309956,-0.479777478,0.027057692,-0.156913906,-0.018658509,,,,,1.76E+18
-0.002659166,-0.011611718,0.877240408,-0.479903494,0.024763897,-0.098950746,-0.015149954,,,,,1.76E+18
-0.002621932,-0.011658405,0.87718664,-0.48000084,0.021019319,-0.083942904,-0.06181957,,,,,1.76E+18
-0.002579681,-0.011728421,0.877142913,-0.480079264,0.024373991,-0.077360439,-0.165642847,,,,,1.76E+18
-0.002525924,-0.011828088,0.877120899,-0.480117325,0.027420724,-0.13088049,-0.357600225,,,,,1.76E+18
-0.002488546,-0.011886568,0.877098529,-0.480156939,0.02715235,-0.085902907,-0.359476917,,,,,1.76E+18
-0.002449139,-0.011928152,0.877069071,-0.480209919,0.01785598,-0.091848134,-0.212935564,,,,,1.76E+18
-0.002373698,-0.011969857,0.877050643,-0.480242915,0.012912171,-0.051325682,-0.151803792,,,,,1.76E+18
-0.002297673,-0.012019376,0.877062382,-0.480220608,0.006210281,0.006053351,-0.171415914,,,,,1.76E+18
-0.002242325,-0.012040574,0.877109674,-0.480133956,-0.001090331,0.038737252,-0.270062048,,,,,1.76E+18
-0.002204711,-0.012079018,0.877162701,-0.480036282,-0.011428233,-0.022578926,-0.21300332,,,,,1.76E+18
-0.002135053,-0.012175215,0.877237325,-0.479897782,-0.007424493,-0.099532293,-0.414199384,,,,,1.76E+18
-0.002140183,-0.012211721,0.877302959,-0.479776836,-0.014298865,-0.112392987,-0.268516262,,,,,1.76E+18
-0.002114532,-0.012244535,0.877373265,-0.479647532,-0.016082469,-0.126681423,-0.292511656,,,,,1.76E+18
-0.002157226,-0.012268338,0.877441773,-0.479521397,-0.017608203,-0.137053319,-0.279807153,,,,,1.76E+18
-0.002203294,-0.012272481,0.877520435,-0.479377114,-0.01603405,-0.148226649,-0.326314804,,,,,1.76E+18
-0.002273089,-0.012255918,0.877610021,-0.479213185,-0.011348101,-0.076114106,-0.39685735,,,,,1.76E+18
-0.002375636,-0.012178004,0.877671187,-0.47910264,-0.007595119,-0.112420016,-0.343660491,,,,,1.76E+18
-0.002508464,-0.012076835,0.877710156,-0.479033131,-0.000957973,-0.12094095,-0.365620591,,,,,1.76E+18
-0.002691985,-0.011920408,0.877719473,-0.479018981,0.007155052,-0.136859368,-0.290728836,,,,,1.76E+18
-0.002892693,-0.011724444,0.877717453,-0.479026348,0.011349322,-0.177111207,-0.24847852,,,,,1.76E+18
-0.003121998,-0.011481269,0.877689123,-0.479082704,0.01777545,-0.141002894,-0.177306014,,,,,1.76E+18
-0.003350499,-0.011220931,0.877646497,-0.479165411,0.015316815,-0.093816986,-0.069263912,,,,,1.76E+18
-0.003565767,-0.01095215,0.877590919,-0.479271858,0.0107881,-0.119862838,0.027716795,,,,,1.76E+18
-0.003789214,-0.010663757,0.877514135,-0.479417218,0.012971194,-0.080426611,0.176085168,,,,,1.76E+18
-0.003974525,-0.010438374,0.877427622,-0.479578994,0.014772129,-0.152839206,0.189885836,,,,,1.76E+18
-0.004173109,-0.010224388,0.877375653,-0.479676985,0.018846931,-0.04564857,0.038487228,,,,,1.76E+18
-0.00446566,-0.010060613,0.877333675,-0.479754587,0.014937495,-0.029896025,0.011898257,,,,,1.76E+18
-0.004754989,-0.009965444,0.87724788,-0.479910656,0.014982452,-0.280127298,0.071585517,,,,,1.76E+18
-0.00483447,-0.009886836,0.877171122,-0.480051768,0.01312934,-0.263438313,0.06459702,,,,,1.76E+18
-0.004760429,-0.00979353,0.877138221,-0.480114534,0.009367577,0.039444711,0.096232519,,,,,1.76E+18
-0.004694051,-0.009765365,0.877161067,-0.480074022,0.002598636,0.158712253,0.03149106,,,,,1.76E+18
-0.004754422,-0.009726273,0.877162516,-0.480071573,-0.005287711,-0.025604179,0.105726198,,,,,1.76E+18
-0.004795324,-0.009766457,0.877133491,-0.480123379,-0.013820038,-0.300775934,0.135946423,,,,,1.76E+18
-0.004697294,-0.009875895,0.877138525,-0.480112914,-0.021813137,-0.2331672,0.094986828,,,,,1.76E+18
-0.004540282,-0.010032591,0.877210702,-0.479979288,-0.027845453,-0.061001475,-0.010276861,,,,,1.76E+18
-0.004337143,-0.010206919,0.8772883,-0.479835645,-0.027299605,-0.041515732,-0.015633148,,,,,1.76E+18
-0.004137267,-0.010375396,0.87739002,-0.479647774,-0.023687491,-0.013408127,-0.230379333,,,,,1.76E+18
-0.004014793,-0.010490229,0.877432777,-0.479568095,-0.019574897,-0.162827153,-0.143979332,,,,,1.76E+18
-0.003848224,-0.010673531,0.877456827,-0.479521411,-0.017284153,-0.329562582,-0.147438986,,,,,1.76E+18
-0.003646862,-0.010804498,0.877536696,-0.479373874,-0.016377082,-0.110558065,-0.278060951,,,,,1.76E+18
-0.00361828,-0.010889068,0.877572097,-0.479307365,-0.006193335,-0.120960686,-0.189984488,,,,,1.76E+18
-0.00357634,-0.010999202,0.877624186,-0.479209783,-0.001685906,-0.109647368,-0.363364473,,,,,1.76E+18
-0.003626954,-0.011031203,0.877642295,-0.4791755,0.012651898,-0.163387971,-0.41589915,,,,,1.76E+18
-0.003661389,-0.011009252,0.877618952,-0.479218494,0.020051157,-0.219896897,-0.345311851,,,,,1.76E+18
-0.003703058,-0.010902322,0.877572291,-0.479306063,0.0273303,-0.110750019,-0.234082599,,,,,1.76E+18
-0.003827555,-0.010746959,0.87750123,-0.479438675,0.030197855,-0.105260914,-0.073428994,,,,,1.76E+18
-0.003935981,-0.010639197,0.877424299,-0.479580979,0.025528912,-0.15544655,0.035333689,,,,,1.76E+18
-0.004015495,-0.010557775,0.877346971,-0.479723568,0.021948045,-0.108542992,0.071558125,,,,,1.76E+18
-0.004018152,-0.010520987,0.87728195,-0.479843248,0.012970001,-0.03965614,0.110606535,,,,,1.76E+18
-0.003964043,-0.010528072,0.877241398,-0.479917676,0.007645935,-0.018908385,0.077040936,,,,,1.76E+18
-0.003937085,-0.010547363,0.877229267,-0.479939648,0.002778981,-0.051310127,0.046206506,,,,,1.76E+18
-0.003896856,-0.010588881,0.877237289,-0.479924399,-0.004807111,-0.104748951,0.01290826,,,,,1.76E+18
-0.003844937,-0.010641775,0.877255492,-0.479890374,-0.010543642,-0.116340908,-0.0430419,,,,,1.76E+18
-0.003747342,-0.010719714,0.877292768,-0.479821263,-0.015211257,-0.067382125,-0.068229967,,,,,1.76E+18
-0.003596282,-0.010871843,0.877368099,-0.479681236,-0.022816099,-0.074059403,-0.148550248,,,,,1.76E+18
-0.003459395,-0.011009993,0.877452785,-0.479524162,-0.021831939,-0.07743329,-0.227599029,,,,,1.76E+18
-0.003339721,-0.011123319,0.877518942,-0.479401319,-0.019200761,-0.10720537,-0.214169367,,,,,1.76E+18
-0.003230854,-0.011240006,0.877574523,-0.47929759,-0.020132817,-0.158172483,-0.180259848,,,,,1.76E+18
-0.003142744,-0.011321677,0.877632997,-0.479189175,-0.017684057,-0.148739404,-0.208028434,,,,,1.76E+18
-0.003050977,-0.011397455,0.877688921,-0.479085533,-0.013471603,-0.099361189,-0.226892266,,,,,1.76E+18
-0.002997187,-0.011457257,0.877724477,-0.479019302,-0.007020441,-0.098661625,-0.225445075,,,,,1.76E+18
-0.00296165,-0.011493313,0.877725502,-0.47901678,-0.001120619,-0.159135974,-0.151776392,,,,,1.76E+18
-0.002924051,-0.011507631,0.87772025,-0.479026291,0.002442573,-0.135806771,-0.117552278,,,,,1.76E+18
-0.00290193,-0.011514001,0.877717879,-0.479030617,0.0034394,-0.131309777,-0.159685091,,,,,1.76E+18
-0.002883178,-0.01152566,0.877718836,-0.479028695,0.005578473,-0.125544573,-0.218153078,,,,,1.76E+18
-0.002885487,-0.011526945,0.877729421,-0.479009255,0.008697286,-0.122596819,-0.26850005,,,,,1.76E+18
-0.002905296,-0.011499748,0.877728068,-0.479012268,0.013119722,-0.124515566,-0.261803193,,,,,1.76E+18
-0.002947078,-0.011447876,0.877715942,-0.479035475,0.013359327,-0.108087561,-0.224169715,,,,,1.76E+18
-0.003007877,-0.011378819,0.877699994,-0.479065961,0.011781605,-0.089969202,-0.171726085,,,,,1.76E+18
-0.003060828,-0.011293414,0.877692106,-0.479082099,0.012389572,-0.08385317,-0.170323703,,,,,1.76E+18
-0.003122157,-0.011216564,0.87769557,-0.479077163,0.011095464,-0.084092295,-0.191609733,,,,,1.76E+18
-0.003195716,-0.011120359,0.877676515,-0.479113828,0.013547931,-0.101417575,-0.143956029,,,,,1.76E+18
-0.003265743,-0.011028435,0.877641185,-0.479180194,0.012697268,-0.1235426,-0.097953705,,,,,1.76E+18
-0.003326474,-0.010926277,0.877595476,-0.479265825,0.012108619,-0.111706581,0.000739647,,,,,1.76E+18
-0.003362256,-0.010831739,0.877566818,-0.479320195,0.007679486,-0.086285536,0.049177725,,,,,1.76E+18
-0.003378496,-0.010792948,0.877557927,-0.479337233,0.001175872,-0.069241942,0.032074498,,,,,1.76E+18
-0.003407057,-0.01077943,0.877546275,-0.479358666,-0.003481403,-0.077010076,0.029154377,,,,,1.76E+18
-0.003417871,-0.010778699,0.87754435,-0.479362129,-0.008452401,-0.082422554,0.018626247,,,,,1.76E+18
-0.00337614,-0.010826016,0.87755959,-0.47933346,-0.011068726,-0.109674597,-0.037744182,,,,,1.76E+18
-0.003292798,-0.010902774,0.877601818,-0.479254981,-0.011097846,-0.10739245,-0.16053319,,,,,1.76E+18
-0.003256867,-0.010954283,0.877649099,-0.479167461,-0.008454189,-0.092302352,-0.230469195,,,,,1.76E+18
-0.003250011,-0.011000182,0.877679391,-0.479110968,-0.006629159,-0.108308384,-0.181656507,,,,,1.76E+18
-0.003233228,-0.011027465,0.877689446,-0.479092034,-0.00641072,-0.166560444,-0.132029184,,,,,1.76E+18
-0.00321595,-0.01105005,0.877685391,-0.479099058,-0.004986451,-0.142302499,-0.065761547,,,,,1.76E+18
-0.003164488,-0.011066012,0.877691675,-0.479087522,-0.005030173,-0.078875972,-0.053673274,,,,,1.76E+18
-0.003133866,-0.011104254,0.877727174,-0.479021798,-0.004604374,-0.08662753,-0.166048987,,,,,1.76E+18
-0.003118272,-0.011141683,0.877762808,-0.478955732,-0.001006381,-0.135384862,-0.253779403,,,,,1.76E+18
-0.003112083,-0.011160301,0.877779812,-0.478924174,0.003365081,-0.16291436,-0.317746221,,,,,1.76E+18
-0.003137631,-0.011139116,0.877781207,-0.478921943,0.007080968,-0.157810739,-0.296946288,,,,,1.76E+18
-0.003188586,-0.011074942,0.877779741,-0.478925783,0.010722866,-0.096493763,-0.201726072,,,,,1.76E+18
-0.003241985,-0.010984798,0.877773281,-0.478939339,0.013271532,-0.088450344,-0.146727855,,,,,1.76E+18
-0.003311617,-0.010889376,0.877753572,-0.478977162,0.015483605,-0.044359765,-0.108733097,,,,,1.76E+18
-0.003414748,-0.010811963,0.877725897,-0.479028904,0.013841197,-0.039977752,-0.099202286,,,,,1.76E+18
-0.003532528,-0.010724812,0.877665107,-0.479141377,0.015025789,-0.228834046,-0.048101133,,,,,1.76E+18
-0.003578893,-0.010646688,0.877606318,-0.479250446,0.01012892,-0.139123933,0.110492735,,,,,1.76E+18
-0.003586664,-0.010597437,0.877550229,-0.479354175,0.008827364,-0.110387475,0.139045459,,,,,1.76E+18
-0.003546164,-0.010611813,0.877500037,-0.479446034,0.00213691,-0.128855584,0.143387375,,,,,1.76E+18
-0.003470193,-0.010686438,0.877482823,-0.479476436,-0.003746586,-0.03396616,0.092602255,,,,,1.76E+18
-0.003378523,-0.010779095,0.877485167,-0.479470727,-0.009147574,-0.036714365,0.057393012,,,,,1.76E+18
-0.003253439,-0.01086341,0.877514507,-0.479415991,-0.011572563,-0.0579047,-0.069566783,,,,,1.76E+18
-0.003172952,-0.010916746,0.877561929,-0.479328507,-0.015263481,-0.02745581,-0.107042514,,,,,1.76E+18
-0.002994034,-0.011110278,0.877659253,-0.479146985,-0.019858943,-0.124105588,-0.341207896,,,,,1.76E+18
-0.002879056,-0.011259565,0.877764363,-0.478951622,-0.009533897,-0.101476691,-0.553583113,,,,,1.76E+18
-0.002827397,-0.011340555,0.877829164,-0.47883124,-0.001751694,-0.169963628,-0.514756702,,,,,1.76E+18
-0.002805296,-0.011384986,0.877877051,-0.478742515,-0.005321383,-0.168398234,-0.369787907,,,,,1.76E+18
-0.002863116,-0.01134493,0.877909516,-0.478683587,-0.003417063,-0.115564247,-0.226204896,,,,,1.76E+18
-0.002920157,-0.011277734,0.87793861,-0.478631468,-0.00542616,-0.084997819,-0.131640783,,,,,1.76E+18
-0.002991676,-0.011230224,0.877954602,-0.478602809,-0.002442476,-0.084398734,-0.143881208,,,,,1.76E+18
-0.003064251,-0.011186518,0.877957534,-0.478597994,0.000166558,-0.139094365,-0.138085222,,,,,1.76E+18
-0.003143877,-0.011137644,0.877956461,-0.478600587,0.005897853,-0.145160007,-0.10902894,,,,,1.76E+18
-0.003240924,-0.011055517,0.877937392,-0.478636823,0.010898571,-0.159949053,-0.089269488,,,,,1.76E+18
-0.003327455,-0.010955966,0.877888247,-0.47872865,0.016111899,-0.159429862,-0.057822106,,,,,1.76E+18
-0.003374142,-0.010865606,0.877841104,-0.478816823,0.019688802,-0.073493126,-0.060912805,,,,,1.76E+18
-0.003431611,-0.010797661,0.877801838,-0.478889932,0.017139992,-0.094159964,-0.054710925,,,,,1.76E+18
-0.003464656,-0.010767729,0.877776136,-0.478937478,0.010826615,-0.074793673,-0.008635501,,,,,1.76E+18
-0.003483245,-0.010727613,0.877747807,-0.478990158,0.006752979,-0.092943635,0.012843031,,,,,1.76E+18
-0.003503202,-0.010698199,0.877731453,-0.479020639,0.001895814,-0.107675884,-0.037960705,,,,,1.76E+18
-0.003493461,-0.010723333,0.877750062,-0.478986049,-0.005218646,-0.099025402,-0.109439946,,,,,1.76E+18
-0.003463175,-0.010759035,0.877800113,-0.478893737,-0.005218491,-0.052778881,-0.249839988,,,,,1.76E+18
-0.003493212,-0.010772424,0.877847728,-0.47880593,-0.002323692,-0.066455196,-0.290268097,,,,,1.76E+18
-0.003499145,-0.010755092,0.877869284,-0.478766753,-0.000568903,-0.091536166,-0.136084476,,,,,1.76E+18
-0.003517742,-0.010709723,0.877870664,-0.478765103,-0.001701911,-0.101873391,-0.020028289,,,,,1.76E+18
-0.003508921,-0.010662925,0.877847212,-0.478809212,-0.005530617,-0.107788486,0.135080315,,,,,1.76E+18
-0.00347621,-0.010675015,0.877831986,-0.478837097,-0.009471991,-0.116078379,0.136058347,,,,,1.76E+18
-0.003422197,-0.010732632,0.877845847,-0.478810785,-0.011746243,-0.15033705,0.048014657,,,,,1.76E+18
-0.003316909,-0.010837482,0.877897926,-0.478713671,-0.012749027,-0.107080781,-0.081449502,,,,,1.76E+18
-0.003225553,-0.010946011,0.877963899,-0.47859082,-0.012108301,-0.07898968,-0.19227661,,,,,1.76E+18
-0.003160421,-0.011017005,0.878007156,-0.478510262,-0.007430023,-0.113847414,-0.222494566,,,,,1.76E+18
-0.003106443,-0.011071899,0.878044854,-0.478440172,-0.004291319,-0.134153342,-0.227731003,,,,,1.76E+18
-0.003074475,-0.011117119,0.878094839,-0.478347584,-0.000428097,-0.127404169,-0.225431989,,,,,1.76E+18
-0.003057247,-0.011151893,0.878131461,-0.478279652,0.002799436,-0.149898459,-0.198241602,,,,,1.76E+18
-0.00304616,-0.011164088,0.878143894,-0.47825661,0.00543439,-0.124120557,-0.169771376,,,,,1.76E+18
-0.003042883,-0.011168023,0.878141595,-0.478260761,0.006970245,-0.116079963,-0.130259322,,,,,1.76E+18
-0.003022891,-0.011163147,0.878134766,-0.47827354,0.005551443,-0.121430258,-0.069254072,,,,,1.76E+18
-0.003016129,-0.011148549,0.878136508,-0.478270724,0.005093011,-0.060768515,-0.058181874,,,,,1.76E+18
-0.003022979,-0.011158502,0.878155515,-0.47823555,0.00619017,-0.100124271,-0.171179251,,,,,1.76E+18
-0.003037838,-0.01116604,0.878174932,-0.478199624,0.007180996,-0.163692119,-0.226872501,,,,,1.76E+18
-0.003048725,-0.011160356,0.878186936,-0.478177642,0.011202397,-0.100574956,-0.224492401,,,,,1.76E+18
-0.003082989,-0.011125984,0.878173494,-0.478202909,0.015199776,-0.111302439,-0.180568948,,,,,1.76E+18
-0.003104314,-0.011064403,0.878147306,-0.478252288,0.01353444,-0.054093014,-0.038512608,,,,,1.76E+18
-0.003106535,-0.011039555,0.87813521,-0.478275057,0.008397128,-0.074069657,0.029870559,,,,,1.76E+18
-0.003105012,-0.011025342,0.878151827,-0.478244885,0.007369161,-0.05311749,-0.092953531,,,,,1.76E+18
-0.003132231,-0.011038261,0.878170786,-0.478209595,0.000550879,-0.143266989,-0.113963854,,,,,1.76E+18
-0.003112811,-0.011073524,0.878202117,-0.478151366,0.001387424,-0.152061075,-0.221185557,,,,,1.76E+18
-0.003094424,-0.011093748,0.878248554,-0.478065719,0.00112727,-0.136968395,-0.237790189,,,,,1.76E+18
-0.003084279,-0.01109712,0.878297176,-0.477976372,-0.001308724,-0.082234026,-0.143040387,,,,,1.76E+18
-0.003141624,-0.01114535,0.878370044,-0.477840953,0.005924686,-0.380158832,-0.663621188,,,,,1.76E+18
-0.00283637,-0.01106582,0.878321907,-0.477933186,-0.003315718,-0.347549074,0.326197756,,,,,1.76E+18
-0.0024826,-0.010954876,0.878493144,-0.477622889,0.025275743,1.352089808,-0.312422647,,,,,1.76E+18
-0.003218257,-0.010676484,0.87864985,-0.477336461,-0.009203146,0.0984161,-0.623103374,,,,,1.76E+18
-0.003405143,-0.010754352,0.878553722,-0.477510321,-0.024339767,-0.815934638,0.411864921,,,,,1.76E+18
-0.003342519,-0.010888704,0.878652965,-0.477325079,-0.006631522,-0.451852927,-0.636910649,,,,,1.76E+18
-0.003564985,-0.010613319,0.878625725,-0.477379811,0.008106339,-0.209550274,-0.014292694,,,,,1.76E+18
-0.003610776,-0.010577822,0.878565511,-0.477491063,0.00494715,-0.287915796,0.199693788,,,,,1.76E+18
-0.003748239,-0.010469394,0.878485626,-0.47763935,0.021223459,-0.156305823,0.143601477,,,,,1.76E+18
-0.0039352,-0.010391088,0.878383601,-0.477827153,0.020525582,-0.16218435,0.27689987,,,,,1.76E+18
-0.003934037,-0.010403932,0.878309858,-0.47796242,0.019273901,-0.178019642,0.142248756,,,,,1.76E+18
-0.003849528,-0.010434932,0.878295539,-0.477988744,0.022137135,0.149003795,0.002193216,,,,,1.76E+18
-0.003757007,-0.010502911,0.878240045,-0.478089947,0.025931651,-0.001030904,0.073369308,,,,,1.76E+18
-0.003674192,-0.010442915,0.878173861,-0.478213462,0.028726215,-0.292334331,-0.067594756,,,,,1.76E+18
-0.003492952,-0.010450614,0.878209644,-0.478148936,0.017826989,0.180363295,-0.128229978,,,,,1.76E+18
-0.003436051,-0.010565729,0.878305813,-0.477970143,0.006451532,0.02857136,-0.454503425,,,,,1.76E+18
-0.003434085,-0.010697852,0.878393029,-0.477806916,-0.004127398,-0.109924267,-0.42542386,,,,,1.76E+18
-0.003399801,-0.010857607,0.87851742,-0.477574808,-0.012129254,-0.216365049,-0.569920329,,,,,1.76E+18
-0.003388091,-0.010889346,0.878684081,-0.477267461,-0.015214035,-0.137830222,-0.63537137,,,,,1.76E+18
-0.003428213,-0.010843679,0.878851067,-0.476960652,-0.020451397,0.023511532,-0.47123017,,,,,1.76E+18
-0.003566013,-0.010742409,0.878950376,-0.476778901,-0.02047573,-0.0974339,-0.265476263,,,,,1.76E+18
-0.003641593,-0.010687266,0.879040815,-0.476612805,-0.022280032,-0.077098175,-0.164056975,,,,,1.76E+18
-0.003824259,-0.010572353,0.879095097,-0.47651381,-0.019347006,-0.226512384,-0.111158906,,,,,1.76E+18
-0.003879675,-0.010461079,0.879119831,-0.476470185,-0.018536046,-0.260126774,0.102761084,,,,,1.76E+18
-0.003895776,-0.010303199,0.879141082,-0.476434281,-0.01226066,-0.008105653,0.167973286,,,,,1.76E+18
-0.004007844,-0.010145411,0.879100738,-0.476511175,-0.001639077,-0.068678098,0.27633487,,,,,1.76E+18
-0.004021653,-0.010071818,0.879056559,-0.476594115,0.000831924,-0.195909594,0.196167434,,,,,1.76E+18
-0.004031637,-0.010028451,0.879020984,-0.476660556,0.007441653,-0.093189324,0.12578252,,,,,1.76E+18
-0.004063636,-0.009995422,0.878972429,-0.476750509,0.01369904,-0.203559396,0.068914533,,,,,1.76E+18
-0.004137327,-0.009979592,0.878907233,-0.476870387,0.018757215,-0.245874657,0.089540714,,,,,1.76E+18
-0.004149646,-0.009976884,0.878843167,-0.476988397,0.022951441,-0.08467955,0.119046605,,,,,1.76E+18
-0.00413863,-0.010036304,0.878816513,-0.477036351,0.016685642,-0.05836261,-0.031881695,,,,,1.76E+18
-0.004103954,-0.010106358,0.878786727,-0.477090042,0.013738382,-0.060888409,0.008281171,,,,,1.76E+18
-0.004028122,-0.0102044,0.878823276,-0.477021272,0.007583369,-0.048822324,-0.193903397,,,,,1.76E+18
-0.004000139,-0.010290054,0.878886227,-0.476903674,0.005681574,-0.123640054,-0.31197107,,,,,1.76E+18
-0.003919207,-0.010371163,0.878954895,-0.476776017,0.00097254,-0.111215845,-0.306322613,,,,,1.76E+18
-0.003823866,-0.010432857,0.879014375,-0.476665776,-0.00203839,-0.07756266,-0.264034195,,,,,1.76E+18
-0.003740073,-0.010480066,0.87908313,-0.476538594,-0.010092403,-0.074761436,-0.211628652,,,,,1.76E+18
-0.003674191,-0.010512512,0.879182179,-0.476355627,-0.01455589,-0.030619365,-0.208643909,,,,,1.76E+18
-0.003645004,-0.010534055,0.879299534,-0.476138717,-0.016971733,-0.044840804,-0.265328391,,,,,1.76E+18
-0.00362459,-0.010564252,0.879405076,-0.475943243,-0.018157914,-0.0961364,-0.30507882,,,,,1.76E+18
-0.003628591,-0.010570424,0.879484127,-0.475796984,-0.014115617,-0.161898782,-0.279316246,,,,,1.76E+18
-0.003668713,-0.01053417,0.879541577,-0.475691273,-0.012264775,-0.166610405,-0.19342128,,,,,1.76E+18
-0.003740244,-0.010474547,0.87956622,-0.475646464,-0.009103282,-0.155528635,-0.050629825,,,,,1.76E+18
-0.003823391,-0.010398581,0.879564483,-0.475650683,-0.002666379,-0.168430015,0.021122893,,,,,1.76E+18
-0.003898951,-0.010337775,0.879556411,-0.475666321,0.003442566,-0.133591582,0.021362797,,,,,1.76E+18
-0.003966201,-0.010287623,0.879542956,-0.47569173,0.007677855,-0.104679896,0.004970889,,,,,1.76E+18
-0.004021745,-0.01024668,0.87951119,-0.475750878,0.013153708,-0.143561362,-0.023514889,,,,,1.76E+18
-0.004073651,-0.010187987,0.879472443,-0.475823321,0.013794783,-0.156429449,-0.006417562,,,,,1.76E+18
-0.004098881,-0.010125765,0.879447693,-0.475870174,0.013583593,-0.128490815,0.015466466,,,,,1.76E+18
-0.004113869,-0.010085209,0.879439461,-0.475886121,0.012224576,-0.074194695,-0.002350249,,,,,1.76E+18
-0.004122124,-0.010062087,0.879416092,-0.475929722,0.01232651,-0.101684192,-0.003710266,,,,,1.76E+18
-0.00408693,-0.010083988,0.87941119,-0.475938618,0.009375358,-0.098678464,-0.06568019,,,,,1.76E+18
-0.004051545,-0.010110411,0.879435727,-0.47589302,0.0071104,-0.101850986,-0.145029759,,,,,1.76E+18
-0.004017936,-0.010129667,0.879479721,-0.475811588,0.001609456,-0.090164059,-0.147781864,,,,,1.76E+18
-0.003989791,-0.01016193,0.879528709,-0.475720577,-0.001540756,-0.085959097,-0.171485241,,,,,1.76E+18
-0.003965386,-0.010210958,0.879585712,-0.475614326,-0.006057252,-0.063653122,-0.185138508,,,,,1.76E+18
-0.003949729,-0.010252163,0.879647019,-0.475500174,-0.009260764,-0.072122147,-0.159350831,,,,,1.76E+18
-0.003930732,-0.010290174,0.879704482,-0.475393191,-0.009608794,-0.126658975,-0.138804187,,,,,1.76E+18
-0.003910204,-0.010316321,0.879762798,-0.475284866,-0.011385752,-0.120134977,-0.132559806,,,,,1.76E+18
-0.003880972,-0.010341961,0.879811025,-0.475195268,-0.010716042,-0.118235866,-0.131686491,,,,,1.76E+18
-0.003877974,-0.010384844,0.879874706,-0.475076435,-0.011216559,-0.129219912,-0.197524678,,,,,1.76E+18
-0.003867445,-0.010391558,0.879949047,-0.474938663,-0.010361594,-0.096233847,-0.233297761,,,,,1.76E+18
-0.003838058,-0.010415865,0.880005008,-0.474834672,-0.008021785,-0.130248034,-0.196531719,,,,,1.76E+18
-0.003881457,-0.010385612,0.87999853,-0.474846986,-0.005043842,-0.331861283,-0.049485073,,,,,1.76E+18
-0.003782592,-0.010374449,0.88000338,-0.474839041,-0.003267738,-0.11851995,0.105679141,,,,,1.76E+18
-0.00381725,-0.010285842,0.88006781,-0.474721266,0.010823106,0.127389442,-0.308356909,,,,,1.76E+18
-0.00393426,-0.010244515,0.880096672,-0.474667693,0.006307934,-0.046862303,-0.199015081,,,,,1.76E+18
-0.003995973,-0.01024782,0.880083725,-0.474691112,0.014362152,-0.299632149,-0.184599652,,,,,1.76E+18
-0.004082206,-0.010112794,0.880087807,-0.474685705,0.018551884,-0.00458187,-0.089953839,,,,,1.76E+18
-0.004233768,-0.009973471,0.880023169,-0.474807147,0.01859094,-0.299324105,0.005909857,,,,,1.76E+18
-0.004293236,-0.009856673,0.879944931,-0.474954032,0.018455846,-0.169804041,0.14860058,,,,,1.76E+18
-0.004305897,-0.00978641,0.879892477,-0.475052539,0.016541366,-0.061353244,0.114689769,,,,,1.76E+18
-0.004371868,-0.009735516,0.879847637,-0.475136025,0.016248576,0.034514249,0.177915966,,,,,1.76E+18
-0.00436534,-0.009789012,0.879809674,-0.475205278,0.010920711,-0.124112081,0.121289379,,,,,1.76E+18
-0.004304661,-0.009873017,0.879788159,-0.475243925,0.00642372,-0.114879903,0.069368672,,,,,1.76E+18
-0.004231735,-0.009954885,0.87977731,-0.475262957,0.002522703,-0.175941307,0.000516934,,,,,1.76E+18
-0.004086053,-0.010091817,0.879822847,-0.475177039,-0.006868003,-0.096653215,-0.129175673,,,,,1.76E+18
-0.003908178,-0.010276764,0.879928841,-0.474978262,-0.013501789,-0.007886163,-0.307910127,,,,,1.76E+18
-0.003738691,-0.010431834,0.880062679,-0.474728217,-0.017223835,0.02573855,-0.361474567,,,,,1.76E+18
-0.003626134,-0.010547071,0.88019691,-0.474477617,-0.018427705,-0.076905137,-0.384320839,,,,,1.76E+18
-0.003546706,-0.010611318,0.88031946,-0.474249375,-0.020103723,-0.111333948,-0.348513535,,,,,1.76E+18
-0.003520131,-0.010667903,0.880427419,-0.47404785,-0.021337265,-0.096714386,-0.317724215,,,,,1.76E+18
-0.003545084,-0.010718219,0.880520048,-0.473874453,-0.019657318,-0.190559121,-0.304214795,,,,,1.76E+18
-0.003563927,-0.010740454,0.880636949,-0.473656526,-0.01661407,-0.103125226,-0.29895621,,,,,1.76E+18
-0.003661182,-0.010746164,0.88073645,-0.473470613,-0.010381993,-0.134613411,-0.301503533,,,,,1.76E+18
-0.003789583,-0.010674573,0.880749361,-0.473447206,-0.003153834,-0.233753605,-0.092946667,,,,,1.76E+18
-0.003895327,-0.010549255,0.880724374,-0.473495636,0.002833771,-0.183815627,0.020783095,,,,,1.76E+18
-0.003999951,-0.010427058,0.880672606,-0.473593748,0.007870691,-0.150973616,0.135971297,,,,,1.76E+18
-0.004033741,-0.010333832,0.880625658,-0.473682796,0.012572861,-0.104694566,0.13437689,,,,,1.76E+18
-0.004045088,-0.010285448,0.880595846,-0.473739171,0.018898675,-0.080844103,-0.005954326,,,,,1.76E+18
-0.004063599,-0.010245468,0.880576161,-0.473776469,0.021057485,-0.143074422,-0.152785406,,,,,1.76E+18
-0.004097892,-0.010147358,0.880543388,-0.473839193,0.018888598,-0.15117643,-0.091367759,,,,,1.76E+18
-0.004150489,-0.010028748,0.88048239,-0.473954595,0.018349348,-0.099383479,0.055986638,,,,,1.76E+18
-0.004175176,-0.009962309,0.88042933,-0.474054339,0.016513085,-0.066809284,0.069590386,,,,,1.76E+18
-0.004175166,-0.009940498,0.880420026,-0.474072075,0.014016766,-0.017792135,-0.00623434,,,,,1.76E+18
-0.004210712,-0.00996995,0.880446883,-0.474021261,0.008852885,-0.06677146,-0.144223031,,,,,1.76E+18
-0.004257649,-0.010029284,0.880485531,-0.473947799,0.004554979,-0.160333345,-0.267196435,,,,,1.76E+18
-0.004293047,-0.01009028,0.88055599,-0.473815264,1.67E-05,-0.147993782,-0.400654145,,,,,1.76E+18
-0.004330164,-0.010095436,0.880624772,-0.473686968,-0.00515907,-0.078585702,-0.258692555,,,,,1.76E+18
-0.004358948,-0.010050874,0.880692884,-0.473561002,-0.011062142,-0.108585404,-0.154645316,,,,,1.76E+18
-0.004332554,-0.010012963,0.880755261,-0.473446026,-0.009921881,-0.002251421,-0.045787876,,,,,1.76E+18
-0.00433407,-0.009987654,0.880793624,-0.473375172,-0.008353796,-0.041996978,-0.02826208,,,,,1.76E+18
-0.004346451,-0.009937201,0.880801614,-0.473361254,-0.008820008,-0.146545735,0.043931784,,,,,1.76E+18
-0.004335299,-0.009904749,0.880802227,-0.473360897,-0.007469509,-0.15555161,0.058544906,,,,,1.76E+18
-0.004316283,-0.00991138,0.880800563,-0.473364027,-0.007169429,-0.152927355,0.067137556,,,,,1.76E+18
-0.004302745,-0.009925319,0.880795095,-0.473374032,-0.003406473,-0.158692802,0.058220019,,,,,1.76E+18
-0.004301694,-0.009945633,0.880780078,-0.473401557,0.001600341,-0.146402016,0.0638284,,,,,1.76E+18
-0.004293092,-0.010020829,0.880765392,-0.473427373,0.005179703,-0.143341125,-0.011687352,,,,,1.76E+18
-0.004276092,-0.01009099,0.880751754,-0.473451406,0.007279258,-0.134665056,-0.061259622,,,,,1.76E+18
-0.004251941,-0.010172703,0.88074724,-0.473458273,0.008647176,-0.140990607,-0.090374507,,,,,1.76E+18
-0.004198948,-0.010264069,0.880777821,-0.473399881,0.010867133,-0.115691205,-0.211936468,,,,,1.76E+18
-0.004165859,-0.010319411,0.880798985,-0.473359592,0.013771146,-0.167233472,-0.254520587,,,,,1.76E+18
-0.004106422,-0.010359879,0.880822521,-0.473315431,0.014933653,-0.145624599,-0.28930335,,,,,1.76E+18
-0.004097462,-0.010337409,0.880874008,-0.473220171,0.017339043,-0.029726535,-0.396382825,,,,,1.76E+18
-0.004136759,-0.010285173,0.880909705,-0.473154515,0.015601522,-0.063653829,-0.292516937,,,,,1.76E+18
-0.004170859,-0.010233696,0.880947535,-0.473084892,0.013002776,-0.075234405,-0.276563427,,,,,1.76E+18
-0.004309964,-0.010145402,0.880991667,-0.473003359,0.00821878,-0.087773798,-0.311471258,,,,,1.76E+18
-0.004417277,-0.010031538,0.88102904,-0.472935182,0.003484915,-0.082800553,-0.211769374,,,,,1.76E+18
-0.004536528,-0.009922571,0.881059624,-0.472879372,0.003208003,-0.080930732,-0.168264205,,,,,1.76E+18
-0.004623339,-0.00981959,0.8810889,-0.472826132,0.000119216,-0.126848916,-0.164267708,,,,,1.76E+18
-0.004721607,-0.009687898,0.881094475,-0.472817488,-0.005545442,-0.130007546,0.018104924,,,,,1.76E+18
-0.004854774,-0.009554463,0.881101004,-0.472806687,-0.018753778,-0.155371102,0.151050806,,,,,1.76E+18
-0.004924032,-0.009490525,0.881071719,-0.472861829,-0.022329044,-0.234153552,0.31912116,,,,,1.76E+18
-0.004971763,-0.009504185,0.881031049,-0.472936828,-0.009838735,-0.211782232,0.238791311,,,,,1.76E+18
-0.004962555,-0.009556928,0.881008779,-0.472977345,-0.002540352,-0.100955088,0.143481005,,,,,1.76E+18
-0.004904136,-0.009632953,0.881007332,-0.472979108,-8.84E-05,-0.053886023,0.109225538,,,,,1.76E+18
-0.004829075,-0.009704428,0.88099445,-0.473002413,0.006300563,-0.089746453,0.043310661,,,,,1.76E+18
-0.004706858,-0.009769208,0.880964168,-0.47305871,0.006245336,-0.104256003,0.07277429,,,,,1.76E+18
-0.004563071,-0.009849904,0.880960198,-0.473065839,-0.000508962,-0.120797117,0.029582463,,,,,1.76E+18
-0.004415185,-0.00993458,0.880999964,-0.472991409,-0.005515733,-0.048279615,-0.042668922,,,,,1.76E+18
-0.004294781,-0.009995142,0.881088645,-0.472826027,-0.014086667,0.050277653,-0.118190165,,,,,1.76E+18
-0.004224093,-0.010051011,0.881190939,-0.472634809,-0.022689246,0.021706,-0.153847677,,,,,1.76E+18
-0.004030883,-0.01025376,0.881310412,-0.472409326,-0.025914961,-0.123919928,-0.31655423,,,,,1.76E+18
-0.003888625,-0.010433102,0.881447797,-0.472150199,-0.017783782,-0.158305356,-0.54844754,,,,,1.76E+18
-0.003832702,-0.010509107,0.881525598,-0.472003696,-0.013266144,-0.260341517,-0.384550738,,,,,1.76E+18
-0.003770638,-0.010597619,0.881562477,-0.471933334,-0.014762106,-0.315329474,-0.188500151,,,,,1.76E+18
-0.003745966,-0.010623175,0.881625544,-0.47181513,-0.013640836,-0.11759967,-0.148456976,,,,,1.76E+18
-0.00375116,-0.010634884,0.88169156,-0.471691446,-0.00991905,-0.043776955,-0.175311433,,,,,1.76E+18
-0.003815597,-0.010619772,0.881708372,-0.471659843,0.004145042,-0.12026287,-0.200825786,,,,,1.76E+18
-0.00391532,-0.010566378,0.881677824,-0.471717326,0.019146813,-0.226881021,-0.199578454,,,,,1.76E+18
-0.004024161,-0.010472196,0.881612856,-0.471839921,0.026041403,-0.223895207,-0.04062145,,,,,1.76E+18
-0.004103887,-0.010365795,0.881516756,-0.472021098,0.029690893,-0.182229355,0.128256235,,,,,1.76E+18
-0.004124042,-0.01031604,0.881423112,-0.472196854,0.026659004,-0.124714983,0.145633575,,,,,1.76E+18
-0.004149532,-0.010239773,0.881331984,-0.472368355,0.031001698,-0.026135386,0.097785741,,,,,1.76E+18
-0.00420619,-0.010151782,0.881245055,-0.472531906,0.033751853,-0.005714492,0.0720182,,,,,1.76E+18
-0.004229666,-0.01012654,0.88117767,-0.472657886,0.032311317,-0.120681211,-0.045235845,,,,,1.76E+18
-0.00422413,-0.010159503,0.881136846,-0.472733328,0.035447612,-0.259052772,-0.286252306,,,,,1.76E+18
-0.00422434,-0.010156953,0.881124174,-0.472757,0.037505329,-0.168623566,-0.423796132,,,,,1.76E+18
-0.00424952,-0.010126282,0.881113106,-0.47277806,0.036145132,-0.083166008,-0.378239814,,,,,1.76E+18
-0.004308802,-0.010076107,0.881094307,-0.472813631,0.028203649,-0.060728857,-0.274567433,,,,,1.76E+18
-0.004370885,-0.010040157,0.881083506,-0.472833952,0.020775544,-0.034952676,-0.198947324,,,,,1.76E+18
-0.004447455,-0.009990297,0.88111788,-0.472770236,0.01181991,0.015390038,-0.207856574,,,,,1.76E+18
-0.00456617,-0.009948284,0.88113347,-0.472740932,0.004864928,-0.121472,-0.111726866,,,,,1.76E+18
-0.004614425,-0.009916385,0.881133306,-0.47274144,-0.003923863,-0.18053213,-0.005389076,,,,,1.76E+18
-0.004584888,-0.00989103,0.881148842,-0.4727133,-0.008989152,-0.054641492,0.016051229,,,,,1.76E+18
-0.004538329,-0.009857943,0.881189757,-0.472638167,-0.01183359,0.049283188,0.019472542,,,,,1.76E+18
-0.004564225,-0.009792368,0.881259136,-0.472509907,-0.014976791,0.035283278,-0.014155409,,,,,1.76E+18
-0.004636814,-0.00972658,0.88130861,-0.472418276,-0.0174079,-0.103680643,0.023929151,,,,,1.76E+18
-0.004683487,-0.009667506,0.881349645,-0.472342468,-0.022657871,-0.184659574,-0.016093748,,,,,1.76E+18
-0.004742795,-0.009628364,0.881379494,-0.472286976,-0.020331044,-0.183870797,-0.012154814,,,,,1.76E+18
-0.00468973,-0.009717676,0.881400479,-0.472246512,-0.018315777,-0.287257552,-0.033708112,,,,,1.76E+18
-0.004660694,-0.009799736,0.881407845,-0.472231357,-0.007415503,-0.173282175,-0.027161419,,,,,1.76E+18
-0.00461782,-0.009840585,0.88136542,-0.472310106,-0.00278809,-0.171170061,0.196810537,,,,,1.76E+18
-0.004388185,-0.01004952,0.881360099,-0.472317823,-0.005405116,-0.164202277,0.091877103,,,,,1.76E+18
-0.004275039,-0.010202408,0.881381552,-0.47227555,0.003163818,-0.111821259,-0.159592546,,,,,1.76E+18
-0.004194821,-0.0102459,0.881377463,-0.472282958,0.007260938,-0.074846232,-0.083717122,,,,,1.76E+18
-0.004135613,-0.01025477,0.881397877,-0.472245189,0.008442594,-0.059431225,-0.189051594,,,,,1.76E+18
-0.004144553,-0.01024077,0.881428372,-0.472188494,0.011143849,-0.082255011,-0.226470385,,,,,1.76E+18
-0.004085681,-0.010311689,0.881463819,-0.47212129,0.011231995,-0.192877558,-0.3139466,,,,,1.76E+18
-0.004042942,-0.010369581,0.881483264,-0.472084083,0.023286827,-0.206242788,-0.445559726,,,,,1.76E+18
-0.004048959,-0.01036388,0.881478292,-0.47209344,0.018677777,-0.174495457,-0.289384892,,,,,1.76E+18
-0.003939381,-0.01045727,0.881495619,-0.472059955,0.009386048,-0.113333802,-0.174429013,,,,,1.76E+18
-0.003883906,-0.010517976,0.881539026,-0.471978,0.010832153,-0.012195133,-0.245285569,,,,,1.76E+18
-0.003882097,-0.010516262,0.881565178,-0.471929205,0.009742183,-0.025180752,-0.190210605,,,,,1.76E+18
-0.003973738,-0.010474331,0.88160657,-0.471852046,0.01573661,-0.237955113,-0.470167413,,,,,1.76E+18
-0.004159136,-0.010204068,0.881607324,-0.471854962,0.006648735,-0.060015023,-0.044219696,,,,,1.76E+18
-0.004151599,-0.010061652,0.881680847,-0.471720692,-0.003487363,0.085921709,-0.184677312,,,,,1.76E+18
-0.004441866,-0.009786683,0.881769113,-0.471558821,-0.003725807,0.219156313,-0.213124164,,,,,1.76E+18
-0.004685638,-0.009663221,0.881719316,-0.471652113,-0.003992357,-0.210381891,0.207993186,,,,,1.76E+18
-0.004810324,-0.009630802,0.881672799,-0.471738469,-0.003019526,-0.450601884,-0.018879123,,,,,1.76E+18
-0.004737947,-0.009520487,0.881611626,-0.471855754,-0.000622385,-0.097290182,0.343802626,,,,,1.76E+18
-0.004712871,-0.009475798,0.88160486,-0.471869547,-0.002899378,-0.198598209,-0.003671863,,,,,1.76E+18
-0.004795087,-0.009470089,0.881554338,-0.471963213,-0.001736826,-0.148845177,0.260630411,,,,,1.76E+18
-0.004669233,-0.009561422,0.881515754,-0.472034694,-0.005907619,-0.267147544,0.212215001,,,,,1.76E+18
-0.004455093,-0.009734583,0.881550562,-0.471968216,-0.005191426,0.085786317,0.051038327,,,,,1.76E+18
-0.004312581,-0.009909517,0.88158705,-0.47189774,-0.00503189,0.128043461,0.053149459,,,,,1.76E+18
-0.004205676,-0.010060832,0.881598576,-0.47187397,-0.006727884,-0.108844407,0.066105981,,,,,1.76E+18
-0.004088484,-0.010165817,0.881597371,-0.471875,-0.001486053,-0.147250143,0.049019789,,,,,1.76E+18
-0.003924442,-0.010316585,0.881602469,-0.471863597,-0.006067771,-0.278831846,-0.037394015,,,,,1.76E+18
-0.003698786,-0.010506065,0.881584152,-0.47189546,0.001660806,-0.241530986,-0.0582954,,,,,1.76E+18
-0.003399004,-0.010751098,0.88161062,-0.471842744,6.40E-05,-0.166663491,-0.189195084,,,,,1.76E+18
-0.003091176,-0.010956529,0.881662338,-0.47174349,0.005974261,-0.074452792,-0.275080374,,,,,1.76E+18
-0.002845723,-0.011094727,0.881825538,-0.471436665,0.004111107,0.184277023,-0.607653672,,,,,1.76E+18
-0.002762496,-0.011198177,0.881946112,-0.47120911,0.00133594,0.126590676,-0.427219724,,,,,1.76E+18
-0.002684842,-0.011288344,0.882032368,-0.471045929,-0.003827696,-0.088674491,-0.383483415,,,,,1.76E+18
-0.002607855,-0.011421162,0.882143973,-0.470834119,-0.004205495,-0.154076691,-0.562900243,,,,,1.76E+18
-0.002703932,-0.011388731,0.882214391,-0.470702405,-0.008406865,-0.176095529,-0.352814481,,,,,1.76E+18
-0.002699365,-0.011482855,0.882270632,-0.470594719,-0.010644718,-0.313129639,-0.280307678,,,,,1.76E+18
-0.002798417,-0.01156805,0.882286782,-0.470561774,-0.004705261,-0.356148796,-0.187600806,,,,,1.76E+18
-0.002795381,-0.011638611,0.882278226,-0.470576094,0.005441304,-0.266195442,-0.136972447,,,,,1.76E+18
-0.002663046,-0.011889966,0.882230046,-0.4706609,0.0123138,-0.268201396,-0.057045959,,,,,1.76E+18
-0.002483141,-0.01213703,0.882112659,-0.47087555,0.029475551,-0.154515511,0.121496302,,,,,1.76E+18
-0.002239599,-0.01243422,0.882001134,-0.471077885,0.052118827,-0.03118794,0.033803347,,,,,1.76E+18
-0.002173251,-0.01253789,0.881889554,-0.471284301,0.052617446,0.094197524,0.086611233,,,,,1.76E+18
-0.002086836,-0.012594373,0.881713146,-0.471613141,0.038400594,-0.105220528,0.36089698,,,,,1.76E+18
-0.002004576,-0.012585952,0.881563876,-0.471892686,0.042527556,-0.069519369,0.211674304,,,,,1.76E+18
-0.001982548,-0.012446045,0.881466834,-0.472077732,0.038258608,0.142722025,0.131377248,,,,,1.76E+18
-0.001987508,-0.012319872,0.881447551,-0.472117024,0.030357447,0.198629619,-0.082538132,,,,,1.76E+18
-0.002097554,-0.012269349,0.881492675,-0.472033607,0.022343397,0.015250692,-0.402458999,,,,,1.76E+18
-0.002143849,-0.012248314,0.881569634,-0.471890203,0.011578301,-0.156344925,-0.543718392,,,,,1.76E+18
-0.002168512,-0.012216837,0.88166229,-0.471717768,0.001639748,-0.193316563,-0.569131852,,,,,1.76E+18
-0.002131232,-0.012212103,0.881761137,-0.471533265,-0.009461273,-0.135329607,-0.468498929,,,,,1.76E+18
-0.002103635,-0.012240931,0.88188479,-0.471301338,-0.017400037,-0.051408808,-0.431682383,,,,,1.76E+18
-0.002150147,-0.012268923,0.881980306,-0.47112163,-0.017600054,-0.065691621,-0.233327829,,,,,1.76E+18
-0.002198593,-0.012315646,0.88206357,-0.470964276,-0.015585923,-0.169529832,-0.254195561,,,,,1.76E+18
-0.002247207,-0.012292399,0.882134642,-0.47083152,-0.014870678,-0.09370885,-0.235725396,,,,,1.76E+18
-0.002371408,-0.012136095,0.882172652,-0.470763744,-0.007265339,-0.029651138,-0.119904365,,,,,1.76E+18
-0.002586594,-0.011901627,0.882167772,-0.470777742,0.001832669,-0.030155408,0.018298761,,,,,1.76E+18
-0.002811767,-0.011723123,0.882165578,-0.470785042,0.002213212,-0.194998519,-0.058934549,,,,,1.76E+18
-0.002985351,-0.011540698,0.882185633,-0.470750899,0.003359447,-0.143471643,-0.165467376,,,,,1.76E+18
-0.003125167,-0.011332656,0.88219666,-0.470734382,0.000182881,-0.103491137,-0.09350506,,,,,1.76E+18
-0.003241639,-0.011163404,0.882181982,-0.470765143,0.006040633,-0.194718088,-0.096284215,,,,,1.76E+18
-0.003338516,-0.011014946,0.882153559,-0.470821222,0.00921719,-0.164857267,-0.055952553,,,,,1.76E+18
-0.003409451,-0.010945837,0.882108884,-0.470906022,0.005721076,-0.179627505,0.030656383,,,,,1.76E+18
-0.00347047,-0.010942433,0.882038339,-0.471037778,0.003768256,-0.191998634,0.178891644,,,,,1.76E+18
-0.00339244,-0.01102064,0.882004215,-0.471100416,-0.003262645,-0.096938241,0.191471651,,,,,1.76E+18
-0.003279749,-0.011128694,0.881996321,-0.471113453,-0.002114832,0.062623709,0.110521547,,,,,1.76E+18
-0.003111016,-0.011239602,0.881992207,-0.471119667,-0.00408708,-0.011356155,0.064439587,,,,,1.76E+18
-0.002953611,-0.011389068,0.882029726,-0.471046842,-0.005121617,-0.145378646,-0.165742356,,,,,1.76E+18
-0.002921966,-0.011396747,0.882107014,-0.470902104,-0.001532085,-0.143654563,-0.378277231,,,,,1.76E+18
-0.00282019,-0.011394576,0.882198679,-0.470731028,-0.017145121,-0.039988744,-0.198790576,,,,,1.76E+18
-0.002773769,-0.011434624,0.882334494,-0.470475712,-0.015093127,-0.001859743,-0.425235717,,,,,1.76E+18
-0.00290901,-0.01125129,0.882494321,-0.470179455,-0.01490932,0.226994757,-0.38939836,,,,,1.76E+18
-0.00300685,-0.011015734,0.882619728,-0.469948964,-0.02583478,0.128635932,-0.126428905,,,,,1.76E+18
-0.00316931,-0.010819058,0.882736146,-0.469733755,-0.029156119,-0.049419008,-0.182091145,,,,,1.76E+18
-0.003470437,-0.010521814,0.882860307,-0.46950498,-0.03514158,-0.219483622,-0.307718502,,,,,1.76E+18
-0.003866472,-0.010231396,0.882946981,-0.469345286,-0.041826271,-0.145855368,-0.041465372,,,,,1.76E+18
-0.004040085,-0.010280135,0.8830033,-0.469236793,-0.050384622,-0.505006888,-0.006483848,,,,,1.76E+18
-0.00388284,-0.010480062,0.883061017,-0.469125071,-0.029737242,-0.452265288,-0.16131553,,,,,1.76E+18
-0.003743562,-0.010569599,0.883091182,-0.469067408,-0.01517713,0.104232407,0.108761731,,,,,1.76E+18
-0.003492265,-0.010794236,0.883051023,-0.46913983,-0.005606912,-0.087704279,0.212651123,,,,,1.76E+18
-0.003251131,-0.010968661,0.883078697,-0.469085422,-0.002753392,-0.290951571,-0.225792805,,,,,1.76E+18
-0.003315576,-0.010859655,0.883130721,-0.468989556,0.017773056,-0.293776827,-0.61762331,,,,,1.76E+18
-0.00353186,-0.010525903,0.883192701,-0.468878859,0.01024014,0.027708423,-0.297490196,,,,,1.76E+18
-0.003699439,-0.010467054,0.883293058,-0.468689801,-0.008548487,0.010274243,-0.286623169,,,,,1.76E+18
-0.003752068,-0.010560815,0.883362512,-0.468556362,0.013085024,-0.317955256,-0.622014074,,,,,1.76E+18
-0.003797548,-0.010445358,0.883408465,-0.468471938,0.019951843,0.126538903,-0.359180546,,,,,1.76E+18
-0.0038778,-0.010256171,0.88333013,-0.468623148,0.016405318,-0.081710654,0.103818425,,,,,1.76E+18
-0.003794301,-0.010207082,0.883310136,-0.468662588,0.002011142,-0.133410603,0.100517817,,,,,1.76E+18
-0.003868338,-0.010102618,0.883310213,-0.468664102,0.003631926,-0.103879524,-0.019614249,,,,,1.76E+18
-0.004017506,-0.00987517,0.883276471,-0.468731283,0.001487782,-0.215951945,0.043775617,,,,,1.76E+18
-0.004141716,-0.00967908,0.883247483,-0.468788913,0.000440286,-0.054039621,0.114267732,,,,,1.76E+18
-0.004214233,-0.009567784,0.883245082,-0.468795076,-0.006942831,0.132118318,0.194475417,,,,,1.76E+18
-0.004281267,-0.009516429,0.88323719,-0.468810383,-0.001167968,-0.076631699,0.048999818,,,,,1.76E+18
-0.004291691,-0.009507296,0.883228795,-0.468826288,-0.000717895,-0.283849744,-0.078752311,,,,,1.76E+18
-0.00425371,-0.009509482,0.883252726,-0.468781504,0.003212721,-0.212400204,-0.248660327,,,,,1.76E+18
-0.004324575,-0.009478163,0.883221636,-0.468840063,0.002318203,-0.22402651,-0.034609783,,,,,1.76E+18
-0.004244729,-0.009542146,0.883175853,-0.468925732,-0.007184979,-0.145126414,0.17754683,,,,,1.76E+18
-0.004124708,-0.009626472,0.883192873,-0.468893022,-0.010673524,0.180825932,0.163088518,,,,,1.76E+18
-0.003977053,-0.009797682,0.883191775,-0.46889282,-0.027611008,0.384112518,0.621091853,,,,,1.76E+18
-0.003899116,-0.01004781,0.883276855,-0.468727891,-0.011124224,-0.194238698,-0.340039252,,,,,1.76E+18
-0.003913191,-0.009916898,0.883343725,-0.468604531,-0.001127482,-0.174229697,-0.39777586,,,,,1.76E+18
-0.003757076,-0.010128089,0.883378842,-0.468535087,-0.029733719,-0.485725086,-0.18319874,,,,,1.76E+18
-0.003637261,-0.010305707,0.883559529,-0.46819133,0.000557581,-0.536252552,-1.167129268,,,,,1.76E+18
-0.003602783,-0.010277478,0.883777598,-0.467780451,0.000787692,0.1159721,-0.83194306,,,,,1.76E+18
-0.003695893,-0.010264115,0.883844307,-0.467653963,0.011813766,-0.147023898,-0.552311207,,,,,1.76E+18
-0.003821459,-0.010142418,0.883883375,-0.467581765,0.009801191,0.048325084,-0.277639484,,,,,1.76E+18
-0.003976247,-0.009845857,0.883847421,-0.467654771,0.006175994,0.145222883,0.151230815,,,,,1.76E+18
-0.004289659,-0.009513431,0.88380915,-0.467731205,0.006406415,0.028694529,0.120809603,,,,,1.76E+18
-0.004585096,-0.009211185,0.883753077,-0.467840388,-0.022807322,-0.362766965,0.200736452,,,,,1.76E+18
-0.004676657,-0.009091504,0.883640169,-0.468055044,-0.002409068,-0.369580042,0.25555817,,,,,1.76E+18
-0.00476309,-0.009022382,0.883580846,-0.46816749,0.006969961,-0.084818102,0.121753344,,,,,1.76E+18
-0.004791342,-0.009002551,0.883452004,-0.468410668,0.003399988,-0.192835859,0.368506354,,,,,1.76E+18
-0.004625574,-0.009092729,0.883339561,-0.468622604,0.002015277,-0.040344516,0.424548961,,,,,1.76E+18
-0.004491415,-0.00915716,0.88326523,-0.468762741,0.004604314,0.08952543,0.305781388,,,,,1.76E+18
-0.004374983,-0.009222482,0.883179622,-0.468923832,0.002203276,0.011857405,0.345864493,,,,,1.76E+18
-0.004300334,-0.009341034,0.883134542,-0.469007071,0.000271539,-0.035573802,0.171968285,,,,,1.76E+18
-0.004273302,-0.009450281,0.883152505,-0.468971303,-0.00502521,-0.006027977,-0.050985387,,,,,1.76E+18
-0.00431665,-0.009493942,0.883212692,-0.468856664,-0.013355303,0.01489154,-0.142133836,,,,,1.76E+18
-0.004254101,-0.009659916,0.88334553,-0.468603525,-0.027507279,-0.115457589,-0.348911513,,,,,1.76E+18
-0.004017913,-0.009994975,0.883559053,-0.468195853,-0.033236422,-0.277395772,-0.76243844,,,,,1.76E+18
-0.003884063,-0.010205519,0.883752817,-0.467826592,-0.029888287,-0.091973722,-0.650824553,,,,,1.76E+18
-0.003835767,-0.010363283,0.883841744,-0.467655494,-0.035997387,-0.284933107,-0.264369496,,,,,1.76E+18
-0.003721121,-0.010529379,0.883900147,-0.467542314,-0.040103007,-0.275551588,0.004022636,,,,,1.76E+18
-0.003553577,-0.010568109,0.884037636,-0.467282725,-0.034910694,0.083994285,-0.099964334,,,,,1.76E+18
-0.003546135,-0.010559105,0.884203603,-0.466968863,-0.024318658,0.196473809,-0.352839511,,,,,1.76E+18
-0.003551262,-0.010611807,0.884345348,-0.466699136,-0.017127912,-0.156885308,-0.589392215,,,,,1.76E+18
-0.003627888,-0.010603467,0.884403483,-0.46658856,-0.000190849,-0.263669268,-0.456410742,,,,,1.76E+18
-0.003805247,-0.010458315,0.884335637,-0.466719,0.011392343,-0.363669663,-0.090798257,,,,,1.76E+18
-0.003996399,-0.010285868,0.884177904,-0.467019983,0.019353583,-0.40062803,0.202985905,,,,,1.76E+18
-0.004158502,-0.010139239,0.884054011,-0.467256256,0.024436088,-0.175723224,0.154477052,,,,,1.76E+18
-0.004324396,-0.010007953,0.88397791,-0.467401535,0.030755369,-0.044529627,-0.029481144,,,,,1.76E+18
-0.004461023,-0.009901806,0.883913863,-0.46752362,0.038438123,-0.021933061,-0.150669782,,,,,1.76E+18
-0.004561412,-0.009795414,0.883830894,-0.467681723,0.041909181,-0.05574843,-0.105938601,,,,,1.76E+18
-0.00468602,-0.009638174,0.883705616,-0.467920433,0.039929289,-0.14379861,0.052159197,,,,,1.76E+18
-0.004723408,-0.00955083,0.883576319,-0.468165953,0.031817075,-0.242234011,0.09824546,,,,,1.76E+18
-0.004715046,-0.009520984,0.883486227,-0.468336638,0.02563587,-0.168375758,0.012367433,,,,,1.76E+18
-0.004729376,-0.0094759,0.883455094,-0.468396134,0.017227238,0.038939034,-0.01561595,,,,,1.76E+18
-0.00472363,-0.009459224,0.883432569,-0.46843901,0.007397565,0.080033571,0.09507288,,,,,1.76E+18
-0.004691548,-0.00947307,0.883451533,-0.468403288,-0.000285265,0.024604626,0.013999273,,,,,1.76E+18
-0.004651868,-0.009473562,0.883485531,-0.468339544,-0.008077877,-0.01217996,-0.016578149,,,,,1.76E+18
-0.004626605,-0.009506943,0.883509529,-0.468293844,-0.018483639,-0.129210622,-0.036613943,,,,,1.76E+18
-0.004568974,-0.009573912,0.883557136,-0.468203218,-0.027436389,-0.158384715,-0.06824204,,,,,1.76E+18
-0.004490786,-0.009674866,0.883654977,-0.468017213,-0.035066515,-0.090027575,-0.072355792,,,,,1.76E+18
-0.004355441,-0.009845253,0.883775564,-0.467787188,-0.038794603,-0.074811547,-0.100196994,,,,,1.76E+18
-0.004177188,-0.010022648,0.883898747,-0.467552246,-0.035970271,-0.094086314,-0.201318248,,,,,1.76E+18
-0.004026769,-0.0101714,0.883998687,-0.467361368,-0.030766979,-0.122302503,-0.214820048,,,,,1.76E+18
-0.003893509,-0.010286157,0.884093172,-0.467181228,-0.030570524,-0.156002417,-0.226112822,,,,,1.76E+18
-0.003807957,-0.010358353,0.884150053,-0.46707268,-0.028700918,-0.206435826,-0.103500848,,,,,1.76E+18
-0.003744183,-0.010417223,0.884211455,-0.466955636,-0.022383999,-0.133597461,-0.130367621,,,,,1.76E+18
-0.00369698,-0.010502874,0.884291426,-0.46680263,-0.01353803,-0.111552188,-0.280047412,,,,,1.76E+18
-0.003668108,-0.010565884,0.88435252,-0.466685685,-0.004052793,-0.126356639,-0.303611208,,,,,1.76E+18
-0.003717325,-0.010554302,0.884363443,-0.466664858,0.006687279,-0.171142804,-0.260097748,,,,,1.76E+18
-0.003804832,-0.010463152,0.884307124,-0.466772917,0.015182738,-0.219948371,-0.108214013,,,,,1.76E+18
-0.00388479,-0.010374353,0.884248058,-0.466886124,0.021513663,-0.197901806,-0.088888164,,,,,1.76E+18
-0.003986552,-0.010287109,0.88420963,-0.46695997,0.026181795,-0.124656545,-0.149863924,,,,,1.76E+18
-0.004096932,-0.010191891,0.8841717,-0.467032917,0.029038245,-0.077984969,-0.173296245,,,,,1.76E+18
-0.004208532,-0.010102104,0.88412628,-0.467119852,0.028421625,-0.081394225,-0.164978068,,,,,1.76E+18
-0.004328493,-0.009972112,0.884062243,-0.467242733,0.027624179,-0.112615943,-0.074624003,,,,,1.76E+18
-0.004424721,-0.009815482,0.883980247,-0.467400258,0.026039701,-0.102502059,0.060297095,,,,,1.76E+18
-0.004489053,-0.009702508,0.883917742,-0.467520197,0.022960227,-0.077129898,0.014092563,,,,,1.76E+18
-0.004543056,-0.009628386,0.883860187,-0.467630009,0.017689437,-0.097924429,-0.00750396,,,,,1.76E+18
-0.004583904,-0.009584798,0.883820411,-0.467705678,0.010419222,-0.097710207,-0.001244291,,,,,1.76E+18
-0.004587371,-0.009568553,0.883820998,-0.467704866,0.003299871,-0.060493422,-0.017051787,,,,,1.76E+18
-0.004569719,-0.009571969,0.883824093,-0.467699121,-0.001217724,-0.051518592,-7.92E-07,,,,,1.76E+18
-0.004534881,-0.009579717,0.88382013,-0.467706791,-0.007388145,-0.054132804,0.022334529,,,,,1.76E+18
-0.004487714,-0.009628611,0.8838327,-0.467682488,-0.013114993,-0.074848322,0.008447857,,,,,1.76E+18
-0.004428652,-0.0096956,0.883864416,-0.467621723,-0.017115954,-0.107693651,-0.019299032,,,,,1.76E+18
-0.004369131,-0.009774117,0.883915853,-0.467523414,-0.020454194,-0.103971905,-0.057563877,,,,,1.76E+18
-0.004268796,-0.009881135,0.883981729,-0.467397522,-0.021287451,-0.127161242,-0.142624557,,,,,1.76E+18
-0.004168869,-0.00998815,0.884049915,-0.467267167,-0.020182857,-0.128510408,-0.186337477,,,,,1.76E+18
-0.004086297,-0.010084032,0.884106238,-0.46715926,-0.016845349,-0.125881615,-0.179467018,,,,,1.76E+18
-0.004000775,-0.010162818,0.884144305,-0.467086243,-0.016270589,-0.137184593,-0.128329415,,,,,1.76E+18
-0.003933939,-0.010219748,0.884187238,-0.467004292,-0.013030098,-0.133677334,-0.155545945,,,,,1.76E+18
-0.003905575,-0.010272719,0.884250492,-0.466883589,-0.009125024,-0.12735368,-0.219646592,,,,,1.76E+18
-0.003892442,-0.010302547,0.884301859,-0.466785741,-0.002938615,-0.142148006,-0.25806074,,,,,1.76E+18
-0.003910936,-0.010309462,0.884326187,-0.466739343,0.00090278,-0.15145168,-0.251352267,,,,,1.76E+18
-0.003948047,-0.010286156,0.884316354,-0.466758175,0.006821867,-0.155948588,-0.167000576,,,,,1.76E+18
-0.004007466,-0.010231802,0.884302107,-0.466785855,0.010347506,-0.141489006,-0.089314069,,,,,1.76E+18
-0.004080729,-0.010156063,0.884292526,-0.466805025,0.013427997,-0.130135996,-0.097764777,,,,,1.76E+18
-0.004140225,-0.01009433,0.884283559,-0.466822826,0.015519205,-0.10902331,-0.148026404,,,,,1.76E+18
-0.004223438,-0.010044646,0.88431159,-0.46677005,0.007948394,-0.130139449,-0.379997917,,,,,1.76E+18
-0.004330384,-0.009936617,0.884264081,-0.466861377,0.014524559,-0.034671642,0.064883337,,,,,1.76E+18
-0.004339222,-0.009851399,0.884223171,-0.466940579,0.011268553,-0.18197367,-0.00189844,,,,,1.76E+18
-0.004403744,-0.009761107,0.884180296,-0.467023054,0.010696641,-0.015491653,0.100732139,,,,,1.76E+18
-0.004461072,-0.009725921,0.884097431,-0.467180091,0.012365757,-0.06110052,0.187552358,,,,,1.76E+18
-0.004591025,-0.00970669,0.883995261,-0.46737253,0.011761605,-0.25153533,0.11013652,,,,,1.76E+18
-0.004613657,-0.009747538,0.883924675,-0.467504939,0.00787363,-0.138818201,0.106119302,,,,,1.76E+18
-0.004556074,-0.00989206,0.883957355,-0.467440673,0.001687922,-0.125442995,-0.246216123,,,,,1.76E+18
-0.004474863,-0.009983566,0.88397079,-0.467414106,-0.001128113,-0.180474862,-0.121324613,,,,,1.76E+18
-0.004391376,-0.010014416,0.884069667,-0.467227194,0.001111308,0.033955182,-0.38219975,,,,,1.76E+18
-0.004271196,-0.010033607,0.884141482,-0.467091986,-0.008389835,0.025137283,-0.163854875,,,,,1.76E+18
-0.004220756,-0.010019731,0.88414773,-0.467080916,-0.009201364,-0.077103355,-0.052772249,,,,,1.76E+18
-0.004159587,-0.010045399,0.884167049,-0.467044341,-0.017609321,-0.050358535,0.026580438,,,,,1.76E+18
-0.003981902,-0.010179924,0.884201968,-0.466976866,-0.027328817,-0.135711401,0.066039616,,,,,1.76E+18
-0.003917829,-0.010279285,0.884308757,-0.466772973,-0.030162754,-0.062623509,-0.128727264,,,,,1.76E+18
-0.003846314,-0.010374608,0.884444686,-0.466513847,-0.035398163,-0.107901074,-0.266102883,,,,,1.76E+18
-0.003705654,-0.010553134,0.88461922,-0.466179939,-0.031466171,-0.09413036,-0.450391622,,,,,1.76E+18
-0.003723981,-0.010582819,0.88474481,-0.465940723,-0.018022802,-0.171875997,-0.409566277,,,,,1.76E+18
-0.003836002,-0.010555155,0.884765745,-0.465900687,-0.003478373,-0.270222706,-0.194606364,,,,,1.76E+18
-0.003897762,-0.010553903,0.884706793,-0.466012139,0.006583038,-0.379495537,-0.068031193,,,,,1.76E+18
-0.0039608,-0.010457824,0.884588088,-0.466239059,0.014501028,-0.193179737,0.209015528,,,,,1.76E+18
-0.003978142,-0.010344405,0.884490001,-0.466427492,0.022616809,-0.029904384,0.201952218,,,,,1.76E+18
-0.004034233,-0.010267443,0.884432356,-0.466538007,0.031208597,0.072554538,0.045524552,,,,,1.76E+18
-0.004087672,-0.010245289,0.884351704,-0.466690893,0.034312021,-0.093190679,-0.025187783,,,,,1.76E+18
-0.004122458,-0.010236336,0.884264003,-0.466856933,0.031601559,-0.245628947,-0.111067246,,,,,1.76E+18
-0.00417685,-0.010231817,0.884218779,-0.466942196,0.030236198,-0.175494938,-0.198071083,,,,,1.76E+18
-0.004220714,-0.010236847,0.884146154,-0.467079192,0.022541508,-0.334338194,-0.099370115,,,,,1.76E+18
-0.004073925,-0.010268106,0.884136839,-0.467097441,0.017458046,-0.09183467,-0.119848467,,,,,1.76E+18
-0.003936051,-0.010281735,0.8842313,-0.46691948,0.01435918,0.260185027,-0.283641822,,,,,1.76E+18
-0.003928377,-0.010227288,0.884302389,-0.466786091,0.007252653,0.151579159,-0.239156651,,,,,1.76E+18
-0.004001542,-0.010178728,0.884355884,-0.466685175,-0.003386149,0.033083315,-0.178530085,,,,,1.76E+18
-0.004058194,-0.01023685,0.884425328,-0.466551795,-0.013107949,-0.24737338,-0.308184264,,,,,1.76E+18
-0.00405093,-0.010283619,0.884533406,-0.466345892,-0.021877114,-0.302249426,-0.403029422,,,,,1.76E+18
-0.004015051,-0.010300578,0.884725504,-0.465981286,-0.026051776,-0.094753862,-0.520336489,,,,,1.76E+18
-0.004007243,-0.010273636,0.884909624,-0.465632206,-0.032951023,0.039758321,-0.381153661,,,,,1.76E+18
-0.004123909,-0.010164998,0.884961812,-0.465534378,-0.030929284,-0.040017606,0.001476134,,,,,1.76E+18
-0.004227265,-0.010031096,0.88491117,-0.46563261,-0.024932068,-0.201710603,0.291562408,,,,,1.76E+18
-0.004229627,-0.009926983,0.884851192,-0.465748788,-0.01624427,-0.273533475,0.263772244,,,,,1.76E+18
-0.004256362,-0.0098099,0.884759374,-0.465925423,-0.003311024,-0.177236559,0.344807958,,,,,1.76E+18
-0.004228161,-0.009770084,0.884659635,-0.466115864,0.007490091,-0.212463894,0.20283057,,,,,1.76E+18
-0.004176423,-0.009774889,0.884591533,-0.46624546,0.016104532,-0.048979778,0.088976285,,,,,1.76E+18
-0.004167713,-0.009800016,0.884521261,-0.46637831,0.021607667,-0.087290569,0.04177241,,,,,1.76E+18
-0.004213546,-0.009796544,0.884388703,-0.466629291,0.02816253,-0.214750036,0.167432318,,,,,1.76E+18
-0.004159447,-0.009846872,0.884339344,-0.466722254,0.027513616,-0.135458299,-0.083866834,,,,,1.76E+18
-0.004132112,-0.009884378,0.884296744,-0.466802413,0.02981922,-0.183091939,-0.236760183,,,,,1.76E+18
-0.004121798,-0.009911489,0.884281078,-0.466831606,0.027347371,-0.124558307,-0.270588546,,,,,1.76E+18
-0.00409785,-0.009983008,0.884303127,-0.466788525,0.022100484,-0.05384192,-0.292776461,,,,,1.76E+18
-0.004088831,-0.010044044,0.884336763,-0.466723568,0.017856743,-0.054164399,-0.304121837,,,,,1.76E+18
-0.004062747,-0.010060319,0.884395861,-0.466611449,0.011233857,0.018418211,-0.297864256,,,,,1.76E+18
-0.004061075,-0.010041519,0.884458724,-0.466492701,0.005425238,-0.047506429,-0.304724083,,,,,1.76E+18
-0.004077647,-0.010020612,0.88451441,-0.466387413,-0.001634664,-0.086449105,-0.257665503,,,,,1.76E+18
-0.004107212,-0.009995308,0.884558636,-0.466303811,-0.004917862,-0.110001307,-0.219391777,,,,,1.76E+18
-0.004100023,-0.009971086,0.884617877,-0.466191997,-0.010236334,0.040953522,-0.075651512,,,,,1.76E+18
-0.004238585,-0.009972368,0.884623756,-0.466179575,-0.011423172,-0.149541152,-0.002624911,,,,,1.76E+18
-0.004284439,-0.009986165,0.884594148,-0.466235041,-0.012595213,-0.376420461,0.008509923,,,,,1.76E+18
-0.004203754,-0.009998803,0.884656952,-0.466116326,-0.012541153,-0.115789822,-0.181739076,,,,,1.76E+18
-0.004181236,-0.009970266,0.884751645,-0.465937375,-0.011304487,0.041578958,-0.219035955,,,,,1.76E+18
-0.004225314,-0.009934524,0.884805023,-0.465836369,-0.011844324,-0.153089511,-0.151013174,,,,,1.76E+18
-0.004196444,-0.009958802,0.884876389,-0.465700536,-0.012530433,-0.145343683,-0.200873278,,,,,1.76E+18
-0.004139914,-0.009994397,0.885007529,-0.465451015,-0.013567944,-0.03639494,-0.390044445,,,,,1.76E+18
-0.004202842,-0.009919396,0.885115569,-0.46524657,-0.012671869,-0.09421482,-0.35979047,,,,,1.76E+18
-0.00429775,-0.009794503,0.885209893,-0.465068859,-0.010796581,-0.09267868,-0.255736039,,,,,1.76E+18
-0.00444459,-0.009620694,0.88523646,-0.465020534,-0.004068166,-0.117914507,-0.090065086,,,,,1.76E+18
-0.004569802,-0.009429892,0.885158901,-0.465170845,0.005507703,-0.185416384,0.11639555,,,,,1.76E+18
-0.004668796,-0.009272226,0.885042964,-0.465393576,0.007599614,-0.226940743,0.205588497,,,,,1.76E+18
-0.004770103,-0.009114019,0.884909149,-0.46565006,0.01140287,-0.16919877,0.309238401,,,,,1.76E+18
-0.004877934,-0.009002241,0.88480884,-0.465841692,0.014125054,-0.147656469,0.212212004,,,,,1.76E+18
-0.004914898,-0.008954534,0.884713468,-0.466023326,0.018711666,-0.157142249,0.128673635,,,,,1.76E+18
-0.004876126,-0.008931734,0.88465359,-0.466137826,0.023625318,0.019920554,0.048820915,,,,,1.76E+18
-0.004850736,-0.008937428,0.884607037,-0.466226322,0.019265097,-0.027530537,-0.022668376,,,,,1.76E+18
-0.004853763,-0.00893432,0.884559357,-0.466316805,0.012273566,-0.120926422,-0.009872098,,,,,1.76E+18
-0.004832814,-0.008946658,0.884537473,-0.466358295,0.004137935,-0.111294676,0.00404119,,,,,1.76E+18
-0.004856091,-0.008980638,0.884499913,-0.466428634,0.001264863,-0.205731317,0.011400823,,,,,1.76E+18
-0.004757289,-0.009058622,0.884439875,-0.466541978,-0.004752277,-0.280165315,0.135889683,,,,,1.76E+18
-0.004552442,-0.009192736,0.884481966,-0.466461597,-0.008645494,0.054517035,-0.04363065,,,,,1.76E+18
-0.004450567,-0.009281663,0.884519904,-0.466388874,-0.009564026,0.060488049,-0.055421385,,,,,1.76E+18
-0.00425169,-0.009410962,0.884583274,-0.466267935,-0.01350345,0.030999429,-0.049755665,,,,,1.76E+18
-0.004117236,-0.009576379,0.884714597,-0.466016548,-0.011137825,0.040705108,-0.292394895,,,,,1.76E+18
-0.004037365,-0.009733899,0.884819743,-0.465814312,-0.012456041,-0.136730419,-0.329022042,,,,,1.76E+18
-0.004049196,-0.009862496,0.884868356,-0.465719151,-0.014868817,-0.349991023,-0.337920646,,,,,1.76E+18
-0.004049959,-0.009951044,0.884904667,-0.465648262,-0.013609928,-0.350008576,-0.279461834,,,,,1.76E+18
-0.004013044,-0.010013935,0.885001888,-0.465462431,-0.01097636,-0.124539941,-0.289264906,,,,,1.76E+18
-0.004018942,-0.010025555,0.885094478,-0.465286043,-0.004488225,-0.006306349,-0.236070672,,,,,1.76E+18
-0.004035695,-0.010002853,0.885157239,-0.46516698,0.000446591,0.016284729,-0.213504188,,,,,1.76E+18
-0.004060526,-0.009943036,0.885184956,-0.4651153,0.008871158,-0.089305571,-0.262843317,,,,,1.76E+18
-0.004107895,-0.009830551,0.885171102,-0.465143639,0.013033466,-0.191771262,-0.200967335,,,,,1.76E+18
-0.004171916,-0.00970534,0.885128243,-0.465227251,0.017010374,-0.23247983,-0.138823381,,,,,1.76E+18
-0.004266138,-0.009567475,0.885099125,-0.465284647,0.016234472,-0.157258854,-0.122887696,,,,,1.76E+18
-0.004374143,-0.009440009,0.885068871,-0.465343794,0.018058769,-0.098528702,-0.095250363,,,,,1.76E+18
-0.004482822,-0.009333059,0.885043438,-0.465393286,0.019500848,-0.039536464,-0.080924981,,,,,1.76E+18
-0.004642974,-0.009206425,0.885000578,-0.465475737,0.019930074,-0.064412858,-0.067283437,,,,,1.76E+18
-0.004786378,-0.009061291,0.884926688,-0.46561759,0.015563604,-0.109384048,0.043304182,,,,,1.76E+18
-0.004917002,-0.00894108,0.884856218,-0.46575246,0.010385146,-0.153151217,0.091834563,,,,,1.76E+18
-0.004989564,-0.00884361,0.884791735,-0.465876035,0.003088393,-0.164060685,0.140097142,,,,,1.76E+18
-0.004982079,-0.008787584,0.884733956,-0.465986894,0.001015875,-0.112134962,0.146283642,,,,,1.76E+18
-0.004906997,-0.008775619,0.884693683,-0.46606437,-0.00117305,-0.037938936,0.135980558,,,,,1.76E+18
-0.004794741,-0.008795084,0.884686276,-0.466079231,-0.003821471,-0.018787096,0.092485907,,,,,1.76E+18
-0.004686908,-0.008813689,0.884684671,-0.466083023,-0.008436953,-0.053810464,0.104193205,,,,,1.76E+18
-0.004556356,-0.008864483,0.88464844,-0.466152119,-0.011456131,-0.097656193,0.169661821,,,,,1.76E+18
-0.004390571,-0.008997617,0.884608184,-0.466227549,-0.01986786,-0.010233675,0.310209056,,,,,1.76E+18
-0.004320353,-0.009221992,0.884624775,-0.466192339,-0.019746257,-0.262241813,-0.049010592,,,,,1.76E+18
-0.004154636,-0.009423129,0.88475899,-0.465935052,-0.013239957,-0.178783131,-0.403436133,,,,,1.76E+18
-0.004028766,-0.009673793,0.884958597,-0.465551789,-0.011394889,-0.020861966,-0.611620658,,,,,1.76E+18
-0.004075867,-0.009807478,0.885141915,-0.465199948,0.002929895,-0.220712816,-0.959729595,,,,,1.76E+18
-0.003954218,-0.009846425,0.885193983,-0.46510109,-0.012999149,-0.282881772,-0.281401031,,,,,1.76E+18
-0.003912605,-0.009780988,0.885486371,-0.464545918,0.010542115,0.340265412,-0.967973751,,,,,1.76E+18
-0.00423636,-0.009593568,0.885459869,-0.4645975,-0.012149134,-0.249565508,-0.037667877,,,,,1.76E+18
-0.004050274,-0.009419457,0.885374747,-0.464764915,-0.007067312,-0.356695843,0.143187673,,,,,1.76E+18
-0.004118639,-0.009200651,0.885450228,-0.464624879,-0.001418112,0.336125068,-0.063213896,,,,,1.76E+18
-0.004491619,-0.008829855,0.885197473,-0.465109979,0.014661788,-0.417741222,0.358052345,,,,,1.76E+18
-0.004471947,-0.008812011,0.885004252,-0.465478059,0.027695756,-0.436418837,0.158518202,,,,,1.76E+18
-0.004629091,-0.008687906,0.884759195,-0.46594448,0.043775756,-0.185107412,0.353742952,,,,,1.76E+18
-0.004808232,-0.008557983,0.884512863,-0.466412518,0.048125632,-0.166823336,0.358064389,,,,,1.76E+18
-0.004928792,-0.008561844,0.884280382,-0.466851805,0.044042643,-0.103675334,0.364301849,,,,,1.76E+18
-0.00492091,-0.008582299,0.884095363,-0.467201795,0.041472059,-0.103316922,0.170728987,,,,,1.76E+18
-0.004875002,-0.008618436,0.883970633,-0.467437565,0.031794105,0.090367136,0.181090893,,,,,1.76E+18
-0.004681635,-0.008756915,0.88393183,-0.467510341,0.022691207,0.030742045,0.005055521,,,,,1.76E+18
-0.004458817,-0.008925652,0.883939741,-0.46749437,0.009406693,0.055690995,-0.031634512,,,,,1.76E+18
-0.004206724,-0.009147459,0.883972303,-0.467430845,-0.003201183,-0.031217861,-0.151071798,,,,,1.76E+18
-0.004041368,-0.009328999,0.883995581,-0.467384692,-0.005666719,-0.066715084,-0.136531915,,,,,1.76E+18
-0.00391024,-0.009504332,0.884050667,-0.46727807,-0.01143152,-0.020648035,-0.162624496,,,,,1.76E+18
-0.003730047,-0.009793215,0.884144177,-0.467096621,-0.014539939,-0.177537839,-0.348981981,,,,,1.76E+18
-0.003571301,-0.010033982,0.884226228,-0.466937407,-0.00502598,-0.159051549,-0.363792247,,,,,1.76E+18
-0.003464697,-0.010220588,0.884283305,-0.466826061,-0.009327332,-0.01724199,-0.197581718,,,,,1.76E+18
-0.00335748,-0.010416679,0.884268545,-0.466850469,-0.022409203,-0.272171721,-0.007101163,,,,,1.76E+18
-0.003193586,-0.010558057,0.884302562,-0.466784006,-0.013708459,-0.150714706,-0.132870748,,,,,1.76E+18
-0.003018322,-0.010651955,0.884338525,-0.466714901,-0.00306247,0.077662254,-0.070036577,,,,,1.76E+18
-0.002904669,-0.01076311,0.884440796,-0.466519235,0.001407554,0.042297912,-0.367894204,,,,,1.76E+18
-0.002877924,-0.010865202,0.884558825,-0.466293201,-3.02E-05,-0.028904262,-0.479277421,,,,,1.76E+18
-0.002836938,-0.010982898,0.884689315,-0.466043071,-0.003906774,-0.231983814,-0.652141725,,,,,1.76E+18
-0.002911414,-0.010962437,0.88479271,-0.465846766,-0.004086505,-0.235422775,-0.569912908,,,,,1.76E+18
-0.003047472,-0.010908802,0.884842074,-0.465753384,-0.002012559,-0.315478487,-0.440979078,,,,,1.76E+18
-0.003194137,-0.010773954,0.88488857,-0.465667198,0.002775258,-0.129900532,-0.322482018,,,,,1.76E+18
-0.003381765,-0.010609108,0.884940893,-0.465570216,0.005999393,-0.025158382,-0.275981217,,,,,1.76E+18
-0.00359455,-0.010397299,0.884938682,-0.465577603,0.010717636,-0.000779506,-0.107346655,,,,,1.76E+18
-0.00377675,-0.010202204,0.884922142,-0.465611913,0.012832777,0.00938904,-0.070320418,,,,,1.76E+18
-0.003988061,-0.009972616,0.884874043,-0.465706528,0.00827788,-0.079381442,0.048266632,,,,,1.76E+18
-0.00420724,-0.00973664,0.884819805,-0.465812634,-0.00364333,-0.128652586,0.124815605,,,,,1.76E+18
-0.00441582,-0.009564955,0.884745653,-0.465955085,-0.007550129,-0.220535933,0.136969964,,,,,1.76E+18
-0.004565676,-0.009474989,0.884674385,-0.466090776,-0.005337161,-0.246632567,0.125309923,,,,,1.76E+18
-0.004676704,-0.009431312,0.884620513,-0.4661928,-0.003978868,-0.212332733,0.10894495,,,,,1.76E+18
-0.004693244,-0.009383699,0.884546535,-0.466333944,-0.006018437,-0.136555562,0.262094512,,,,,1.76E+18
-0.004632605,-0.009371841,0.884468773,-0.466482258,-0.000160732,0.019423591,0.28354835,,,,,1.76E+18
-0.004494535,-0.009452611,0.88442133,-0.466571922,-0.002607061,0.048557309,0.212069926,,,,,1.76E+18
-0.004318054,-0.009591674,0.884410329,-0.466591604,-0.007547985,0.004375314,0.11518059,,,,,1.76E+18
-0.004185786,-0.009730878,0.884421614,-0.466568535,-0.012204828,-0.101644406,0.042127996,,,,,1.76E+18
-0.004074163,-0.009804614,0.884460868,-0.466493563,-0.015188578,-0.060799846,-0.015725705,,,,,1.76E+18
-0.004005775,-0.009836521,0.884512488,-0.466395599,-0.019195961,-0.051725112,-0.105933828,,,,,1.76E+18
-0.003905777,-0.009999958,0.884639312,-0.466152372,-0.02618392,-0.124025615,-0.355601863,,,,,1.76E+18
-0.003731959,-0.010266176,0.884808204,-0.46582735,-0.026688565,-0.236902218,-0.58221384,,,,,1.76E+18
-0.003604954,-0.010466019,0.884940469,-0.465572587,-0.020842556,-0.139206945,-0.439432778,,,,,1.76E+18
-0.003558483,-0.010570786,0.884985988,-0.465484046,-0.017065778,-0.214373422,-0.187806845,,,,,1.76E+18
-0.003512261,-0.010610216,0.885049686,-0.465362376,-0.016843781,-0.121786794,-0.168086651,,,,,1.76E+18
-0.003531701,-0.010581064,0.885137,-0.465196796,-0.01412539,-0.039750087,-0.263459177,,,,,1.76E+18
-0.003555114,-0.010566387,0.885217128,-0.465044458,-0.005634147,-0.097853569,-0.360000475,,,,,1.76E+18
-0.003567774,-0.01053762,0.885279068,-0.464927093,0.006634068,-0.109636851,-0.355939532,,,,,1.76E+18
-0.003649222,-0.010450891,0.885280277,-0.464926117,0.016528966,-0.196546403,-0.225544269,,,,,1.76E+18
-0.003782596,-0.010315476,0.8852098,-0.465062247,0.020235792,-0.163831757,-0.002621135,,,,,1.76E+18
-0.003928125,-0.01016834,0.88509202,-0.465288396,0.020083396,-0.261258087,0.018636299,,,,,1.76E+18
-0.004065482,-0.0099913,0.885006916,-0.465452902,0.02095191,-0.120119551,-0.008461844,,,,,1.76E+18
-0.004181324,-0.009871135,0.884980118,-0.465505389,0.026535589,-0.026068906,-0.11122826,,,,,1.76E+18
-0.004278252,-0.009785177,0.884954958,-0.465554153,0.026341589,-0.081289993,-0.138508073,,,,,1.76E+18
-0.004373253,-0.009686501,0.884876093,-0.465705214,0.022025784,-0.115937572,0.009249023,,,,,1.76E+18
-0.004386748,-0.009654876,0.884791306,-0.465866811,0.010800796,-0.159264637,0.07042881,,,,,1.76E+18
-0.004380048,-0.009627463,0.884727507,-0.465988589,0.006905494,-0.096441048,0.062986552,,,,,1.76E+18
-0.004430112,-0.009563206,0.884624625,-0.466184718,0.004251036,-0.116300715,0.205931676,,,,,1.76E+18
-0.004298377,-0.009581318,0.884572796,-0.466283917,-0.00068733,-0.052036895,0.156527902,,,,,1.76E+18
-0.004173375,-0.009579849,0.884554107,-0.466320534,-0.005226494,0.132144419,0.192376262,,,,,1.76E+18
-0.004038509,-0.00963604,0.88456358,-0.466302596,-0.008866794,0.125556004,0.121542553,,,,,1.76E+18
-0.003965571,-0.009750275,0.88453945,-0.466346618,-0.015718317,-0.18261476,0.021040311,,,,,1.76E+18
-0.003858983,-0.009896851,0.884482717,-0.466452016,-0.02485558,-0.46037984,-0.011787594,,,,,1.76E+18
-0.003574863,-0.01003154,0.884537048,-0.466348366,-0.026347896,-0.279963159,-0.129688129,,,,,1.76E+18
-0.003250727,-0.010269438,0.884828362,-0.465792595,-0.032303549,0.360469092,-0.392361783,,,,,1.76E+18
-0.003221021,-0.010548232,0.88525229,-0.464980369,-0.04169156,-0.035778381,-1.187259426,,,,,1.76E+18
-0.003009429,-0.010697304,0.885728859,-0.46406993,-0.075467706,0.19011729,-0.755597136,,,,,1.76E+18
-0.002976811,-0.010519589,0.886751194,-0.462117731,-0.12205781,1.824617428,-1.221583991,,,,,1.76E+18
-0.004037063,-0.011323283,0.886540862,-0.462494093,-0.091025025,-0.97869048,0.200367187,,,,,1.76E+18
-0.003831299,-0.010882013,0.886411885,-0.462753577,-0.050168619,-1.343532498,-0.238395588,,,,,1.76E+18
-0.003312005,-0.01111774,0.8862895,-0.462986337,-0.001759112,0.520855652,0.845030072,,,,,1.76E+18
-0.004670142,-0.010538954,0.885620511,-0.464266552,0.061120618,-0.950645531,1.00899189,,,,,1.76E+18
-0.004279625,-0.010798572,0.885260395,-0.464950652,0.046177194,-1.00433969,0.439392621,,,,,1.76E+18
-0.005041325,-0.010757253,0.884754613,-0.465905722,0.108651891,-1.635331655,-0.644534378,,,,,1.76E+18
-0.004596202,-0.010313631,0.884696338,-0.466031,0.081002951,0.426992508,0.01590847,,,,,1.76E+18
-0.004609869,-0.010284598,0.884842982,-0.465753017,0.085293338,1.146066272,-0.373039795,,,,,1.76E+18
-0.004788139,-0.010097266,0.884895064,-0.465656358,0.061309256,-0.138824223,-0.847071617,,,,,1.76E+18
-0.004609934,-0.010006738,0.885155053,-0.465165719,0.043342538,0.665071647,-0.774543694,,,,,1.76E+18
-0.004814636,-0.009793721,0.8850872,-0.465297271,0.010747253,-0.437236768,-0.252097647,,,,,1.76E+18
-0.005015964,-0.009509104,0.885119452,-0.465239693,-0.002314621,-0.045638553,-0.152225444,,,,,1.76E+18
-0.00510832,-0.009452527,0.885120299,-0.46523823,-0.030425584,-0.118626094,0.095920651,,,,,1.76E+18
-0.005207954,-0.00937294,0.885014321,-0.465440304,-0.029232269,-0.166833197,0.432402475,,,,,1.76E+18
-0.005256189,-0.009282929,0.88490374,-0.46565177,-0.030112792,-0.134615194,0.4632279,,,,,1.76E+18
-0.005249746,-0.009292107,0.884815468,-0.46581937,-0.030069133,-0.300156906,0.373740508,,,,,1.76E+18
-0.005144263,-0.009275236,0.884826035,-0.465800809,-0.031772062,0.010341677,0.274914008,,,,,1.76E+18
-0.005018377,-0.009356292,0.884844273,-0.465765915,-0.029660506,0.097935482,0.20276357,,,,,1.76E+18
-0.004866447,-0.009567068,0.884910066,-0.465638233,-0.0257951,0.062141214,-0.009312762,,,,,1.76E+18
-0.004759938,-0.00980759,0.884916494,-0.465622113,-0.017237609,-0.165635341,-0.012761845,,,,,1.76E+18
-0.004666932,-0.010048484,0.884941069,-0.465571211,-0.011332293,-0.282354875,-0.17357268,,,,,1.76E+18
-0.004594943,-0.010215422,0.884926871,-0.46559528,-0.006580622,-0.322073481,-0.157614333,,,,,1.76E+18
-0.004506824,-0.010362937,0.884937305,-0.465573049,-0.00191648,-0.308365871,-0.286022864,,,,,1.76E+18
-0.004420027,-0.010464753,0.884990054,-0.465471328,0.003658679,-0.231481305,-0.403862423,,,,,1.76E+18
-0.004334343,-0.010552222,0.88507331,-0.465311831,0.006429645,-0.156094476,-0.464722084,,,,,1.76E+18
-0.004289823,-0.010554459,0.885176914,-0.465115073,0.007816911,-0.056240169,-0.479322573,,,,,1.76E+18
-0.004294696,-0.010487468,0.885271303,-0.464936866,0.006468744,0.010151679,-0.379490942,,,,,1.76E+18
-0.004348656,-0.010362531,0.885346086,-0.464796745,0.005686774,0.014824832,-0.320054882,,,,,1.76E+18
-0.004438996,-0.010223049,0.885374565,-0.46474473,0.003145776,-0.024145533,-0.214804079,,,,,1.76E+18
-0.004544869,-0.010080147,0.885350609,-0.464792463,0.002510821,-0.150006216,-0.114434747,,,,,1.76E+18
-0.004644323,-0.00995047,0.885299603,-0.46489142,-0.00115643,-0.242962922,-0.013318121,,,,,1.76E+18
-0.004732189,-0.009819049,0.885225327,-0.465034744,-0.004300132,-0.256425649,0.091832408,,,,,1.76E+18
-0.004782964,-0.009711642,0.885141186,-0.465196612,-0.003941257,-0.14656256,0.164727448,,,,,1.76E+18
-0.004787788,-0.009632116,0.885079416,-0.465315728,-0.005594373,0.0053691,0.185092257,,,,,1.76E+18
-0.004771746,-0.009591889,0.885049457,-0.465373704,-0.006066361,0.059851586,0.150285333,,,,,1.76E+18
-0.004744521,-0.009614429,0.885052928,-0.465366916,-0.006131183,-0.02915801,0.047209826,,,,,1.76E+18
-0.004717003,-0.009673705,0.885057636,-0.465357015,-0.008801617,-0.140765989,-0.020554307,,,,,1.76E+18
-0.004703669,-0.009758081,0.885037962,-0.465392802,-0.009645421,-0.192351859,-0.046283182,,,,,1.76E+18
-0.004683082,-0.009863107,0.885014295,-0.465435802,-0.008517498,-0.177413671,-0.048437633,,,,,1.76E+18
-0.00465533,-0.009972091,0.884995665,-0.465469182,-0.005626723,-0.158038254,-0.046037051,,,,,1.76E+18
-0.004610667,-0.010074101,0.884993562,-0.465471428,-0.002236956,-0.137145977,-0.089051177,,,,,1.76E+18
-0.004550393,-0.010153871,0.884996584,-0.465464541,0.002915409,-0.14412502,-0.152778585,,,,,1.76E+18
-0.004490873,-0.010203941,0.885011116,-0.465436393,0.005542439,-0.168116006,-0.235281753,,,,,1.76E+18
-0.004445083,-0.010236936,0.885032864,-0.465394752,0.007479351,-0.166836379,-0.289975608,,,,,1.76E+18
-0.004436048,-0.010246062,0.885056735,-0.465349241,0.007008884,-0.148377503,-0.300678124,,,,,1.76E+18
-0.00444433,-0.010231872,0.885084568,-0.465296534,0.006315725,-0.118892968,-0.272689314,,,,,1.76E+18
-0.004465576,-0.010195314,0.885121734,-0.46522643,0.006651119,-0.060133283,-0.223907465,,,,,1.76E+18
-0.004506658,-0.010118757,0.885144284,-0.4651848,0.007423352,-0.033739401,-0.165029285,,,,,1.76E+18
-0.004566727,-0.01003264,0.88512167,-0.465229106,0.00606528,-0.085170007,-0.099027793,,,,,1.76E+18
-0.004634261,-0.009940646,0.885051441,-0.465364002,0.007351458,-0.156834162,-0.023351836,,,,,1.76E+18
-0.004696537,-0.009851778,0.884987458,-0.465486932,0.006688531,-0.17661903,0.019739045,,,,,1.76E+18
-0.004737976,-0.009801022,0.88493706,-0.465583389,0.005496271,-0.173632288,0.010942352,,,,,1.76E+18
-0.004745609,-0.009768002,0.884902834,-0.465649052,0.003162048,-0.127049089,-0.019868061,,,,,1.76E+18
-0.004717628,-0.009741859,0.884901346,-0.465652712,0.000373214,-0.023806597,-0.049901542,,,,,1.76E+18
-0.004692367,-0.009734093,0.884927465,-0.465603491,-0.001211806,0.008492787,-0.088305469,,,,,1.76E+18
-0.004673035,-0.009740544,0.88496222,-0.46553749,-0.00592273,-0.039666087,-0.100966084,,,,,1.76E+18
-0.00465137,-0.009742074,0.884970248,-0.465522412,-0.006733888,-0.095075577,-0.070235244,,,,,1.76E+18
-0.004649333,-0.009759929,0.884944976,-0.465570099,-0.00802354,-0.19186803,-0.050796598,,,,,1.76E+18
-0.004635483,-0.009790023,0.884925134,-0.465607319,-0.006659256,-0.217231928,-0.076548916,,,,,1.76E+18
-0.004605161,-0.009817649,0.884925561,-0.465606226,-0.005976496,-0.165512614,-0.094290868,,,,,1.76E+18
-0.004586404,-0.009842348,0.884928796,-0.46559974,-0.002007587,-0.138826892,-0.128831453,,,,,1.76E+18
-0.004557418,-0.009862064,0.884923189,-0.465610266,-0.001742141,-0.126301897,-0.115716179,,,,,1.76E+18
-0.004548197,-0.009856825,0.884931507,-0.465594657,0.001721028,-0.060951307,-0.144485095,,,,,1.76E+18
-0.004557561,-0.009830402,0.884938969,-0.465580941,0.003715999,-0.081874522,-0.155301062,,,,,1.76E+18
-0.004575832,-0.009813243,0.884929758,-0.465598631,0.005417434,-0.112645483,-0.130739697,,,,,1.76E+18
-0.004610674,-0.009780697,0.884902576,-0.465650631,0.005686729,-0.160930253,-0.099885546,,,,,1.76E+18
-0.004634827,-0.009734553,0.884870385,-0.465712528,0.007220126,-0.146606028,-0.073808263,,,,,1.76E+18
-0.004655728,-0.009688633,0.884821622,-0.465805916,0.008694484,-0.160744508,-0.055593081,,,,,1.76E+18
-0.004662435,-0.009642833,0.884778273,-0.465889134,0.006210581,-0.155466957,-0.062973366,,,,,1.76E+18
-0.004633394,-0.009620275,0.884754181,-0.46593564,0.00339453,-0.127539782,-0.056142037,,,,,1.76E+18
-0.004603062,-0.009596773,0.884774888,-0.465897103,0.001542371,-0.0582513,-0.078276316,,,,,1.76E+18
-0.004566375,-0.009582189,0.884813542,-0.46582435,-0.002693276,-0.024891013,-0.093992913,,,,,1.76E+18
-0.004551634,-0.009583132,0.884829354,-0.46579444,-0.004574809,-0.064727196,-0.116016873,,,,,1.76E+18
-0.004547209,-0.009597932,0.884820941,-0.465810159,-0.007603496,-0.117600527,-0.068252864,,,,,1.76E+18
-0.004539658,-0.009613586,0.884811081,-0.46582864,-0.006537818,-0.132869335,-0.030418379,,,,,1.76E+18
-0.004538097,-0.009629206,0.884798797,-0.465851664,-0.005702559,-0.14529278,-0.010737092,,,,,1.76E+18
-0.00452832,-0.009657371,0.884772981,-0.465900206,-0.00132187,-0.135593684,-0.019679151,,,,,1.76E+18
-0.004513115,-0.009695418,0.884733796,-0.465973969,0.001868987,-0.154473456,-0.054485176,,,,,1.76E+18
-0.004483062,-0.009718484,0.884702676,-0.466032862,0.002541601,-0.155480272,-0.090498111,,,,,1.76E+18
-0.004452803,-0.009734099,0.884694529,-0.466048291,0.004801572,-0.132312327,-0.145926435,,,,,1.76E+18
-0.004435765,-0.00975322,0.884717134,-0.466005141,0.002969139,-0.133694815,-0.21578742,,,,,1.76E+18
-0.004445142,-0.009764282,0.88472884,-0.465982596,0.002965279,-0.237932166,-0.221140162,,,,,1.76E+18
-0.004451216,-0.00975608,0.88478524,-0.465875611,0.003193266,0.002288369,-0.199494471,,,,,1.76E+18
-0.004467599,-0.009729299,0.884829919,-0.465791151,0.005618554,0.069297255,-0.182759349,,,,,1.76E+18
-0.004506036,-0.009665609,0.88483693,-0.465778787,0.007221292,0.063260332,-0.105160514,,,,,1.76E+18
-0.004563984,-0.009602727,0.884810421,-0.46582988,0.007340726,-0.099865039,-0.05535522,,,,,1.76E+18
-0.004651127,-0.009543279,0.884748895,-0.465947085,0.005854851,-0.276267884,-0.019860626,,,,,1.76E+18
-0.004731491,-0.009509342,0.884661869,-0.466112178,0.005290762,-0.315549411,0.005970682,,,,,1.76E+18
-0.004785675,-0.009503075,0.884570956,-0.466284262,0.005554286,-0.239018826,0.027738973,,,,,1.76E+18
-0.004794709,-0.009518888,0.884533856,-0.46635422,0.005833131,-0.055582685,-0.00153457,,,,,1.76E+18
-0.004771161,-0.009528833,0.884534708,-0.466352643,0.007185724,0.02435413,-0.029568481,,,,,1.76E+18
-0.004722841,-0.009527484,0.884519189,-0.466382596,0.005046402,-0.026115523,0.006206319,,,,,1.76E+18
-0.004658675,-0.009530774,0.884499385,-0.466420731,0.002860106,-0.096231478,-0.080826364,,,,,1.76E+18
-0.004621507,-0.009558854,0.884482939,-0.466451714,-0.000129315,-0.208720242,-0.132345206,,,,,1.76E+18
-0.004580209,-0.009627503,0.88448076,-0.46645484,-0.004331601,-0.245472513,-0.161586043,,,,,1.76E+18
-0.004534213,-0.009697597,0.884513917,-0.466390961,-0.006181269,-0.111156572,-0.177244851,,,,,1.76E+18
-0.00448991,-0.009735414,0.884555611,-0.46631152,-0.007853832,-0.019880422,-0.121276907,,,,,1.76E+18
-0.00443636,-0.00974815,0.884609778,-0.466209001,-0.004851227,0.078738311,-0.090780989,,,,,1.76E+18
-0.004416428,-0.009759625,0.884649049,-0.466134428,-0.003401381,-0.003189695,-0.126213106,,,,,1.76E+18
-0.004433188,-0.009773242,0.884643296,-0.466144901,-0.002450312,-0.146154079,-0.123999843,,,,,1.76E+18
-0.004458352,-0.009796042,0.884608516,-0.466210182,-0.000703688,-0.246237329,-0.117462209,,,,,1.76E+18
-0.004507467,-0.009831504,0.884547653,-0.46632443,0.002594215,-0.311253661,-0.068220163,,,,,1.76E+18
-0.004539321,-0.009852888,0.88448048,-0.466451064,0.004688032,-0.229642373,-0.010612167,,,,,1.76E+18
-0.004543104,-0.00986239,0.884423161,-0.466559499,0.007316472,-0.133420164,-0.014394849,,,,,1.76E+18
-0.0045082,-0.009860656,0.8844063,-0.466591834,0.009812154,0.001248417,-0.047815782,,,,,1.76E+18
-0.004472267,-0.009868009,0.884413483,-0.466578409,0.01089151,-0.014623567,-0.083497712,,,,,1.76E+18
-0.004450016,-0.009877669,0.884418831,-0.466568281,0.010024785,-0.076551748,-0.118959098,,,,,1.76E+18
-0.004441469,-0.009902973,0.884400435,-0.466602695,0.005852805,-0.153408558,-0.142769489,,,,,1.76E+18
-0.004437248,-0.009935683,0.884383952,-0.466633281,0.0022287,-0.181628294,-0.152688409,,,,,1.76E+18
-0.004424404,-0.009972906,0.884404179,-0.466594271,-0.001288291,-0.134923638,-0.167373295,,,,,1.76E+18
-0.004421987,-0.010006842,0.884446895,-0.466512592,-0.004518517,-0.10239468,-0.170339015,,,,,1.76E+18
-0.004419049,-0.010019834,0.884495396,-0.466420379,-0.004788012,-0.040951096,-0.165126753,,,,,1.76E+18
-0.004434563,-0.010017905,0.884513945,-0.466385095,-0.002804214,-0.029484146,-0.134691827,,,,,1.76E+18
-0.004450565,-0.010009363,0.884507948,-0.4663965,-0.00069239,-0.043153996,-0.088531643,,,,,1.76E+18
-0.004485745,-0.00999399,0.884481783,-0.466446111,0.001225529,-0.099329465,-0.059663575,,,,,1.76E+18
-0.004536107,-0.009977089,0.884428804,-0.466546431,0.004176205,-0.212370978,-0.066610773,,,,,1.76E+18
-0.004572177,-0.00997143,0.884382751,-0.466633491,0.007119377,-0.250649071,-0.085285306,,,,,1.76E+18
-0.004609311,-0.009968334,0.884341733,-0.466710922,0.006864954,-0.237812451,-0.097416562,,,,,1.76E+18
-0.004636666,-0.009955925,0.884302033,-0.466786134,0.007575522,-0.160933935,-0.100751776,,,,,1.76E+18
-0.004642831,-0.009949053,0.884278561,-0.466830684,0.006955067,-0.064838042,-0.087330712,,,,,1.76E+18
-0.004635165,-0.009944051,0.884279534,-0.466829023,0.006011537,-0.050263696,-0.095276428,,,,,1.76E+18
-0.004624586,-0.009914062,0.884326538,-0.466740718,0.004778071,-0.010936131,-0.143056812,,,,,1.76E+18
-0.004611766,-0.009896315,0.884360041,-0.466677739,0.001344651,-0.079552346,-0.15348492,,,,,1.76E+18
-0.004627588,-0.009871512,0.884347195,-0.466702451,-0.001533505,-0.167444662,-0.134955119,,,,,1.76E+18
-0.004659366,-0.009858158,0.884335781,-0.466724045,-0.003801662,-0.167988041,-0.125551594,,,,,1.76E+18
-0.00467665,-0.009853088,0.884351548,-0.466694103,-0.006662489,-0.138356192,-0.072012199,,,,,1.76E+18
-0.004681813,-0.009836724,0.884370746,-0.466658014,-0.006047358,-0.015895307,0.012078249,,,,,1.76E+18
-0.00467374,-0.009825045,0.884359343,-0.466679951,-0.003405699,-0.014495063,0.006323305,,,,,1.76E+18
-0.004644924,-0.009816957,0.884344378,-0.466708767,-0.002546927,-0.035719658,-0.020042985,,,,,1.76E+18
-0.00462772,-0.009837106,0.884323003,-0.466749014,-0.00220512,-0.173539758,-0.102629274,,,,,1.76E+18
-0.00461547,-0.009875842,0.884296007,-0.466799462,-0.006962339,-0.271453256,-0.121696376,,,,,1.76E+18
-0.004595382,-0.009937749,0.884299642,-0.46679146,-0.010375531,-0.246157585,-0.147307768,,,,,1.76E+18
-0.00455416,-0.009995827,0.884369383,-0.46665848,-0.015165254,-0.08539606,-0.176507577,,,,,1.76E+18
-0.004502229,-0.010059733,0.884487432,-0.466433825,-0.01830834,0.021002488,-0.215279517,,,,,1.76E+18
-0.004478109,-0.010075983,0.884582984,-0.46625247,-0.017705837,0.02779813,-0.197040364,,,,,1.76E+18
-0.004490718,-0.010046738,0.884626338,-0.466170719,-0.015947115,-0.07894253,-0.14833188,,,,,1.76E+18
-0.004533363,-0.010003283,0.884627268,-0.466169476,-0.010089329,-0.174293272,-0.067804455,,,,,1.76E+18
-0.004604483,-0.009960775,0.884563174,-0.466291297,-0.002466777,-0.275041359,0.02697895,,,,,1.76E+18
-0.004674308,-0.00994281,0.884465654,-0.466475936,0.004957067,-0.315229865,-0.018902114,,,,,1.76E+18
-0.004736183,-0.009924271,0.884385101,-0.466628408,0.012461029,-0.231874887,-0.046214897,,,,,1.76E+18
-0.004755938,-0.009876534,0.884340756,-0.466713256,0.018435348,-0.141991587,-0.079904358,,,,,1.76E+18
-0.004767173,-0.009819386,0.884329266,-0.466736118,0.017870752,-0.033161297,-0.092860138,,,,,1.76E+18
-0.004779812,-0.009768471,0.884328548,-0.466738416,0.016550619,0.009291025,-0.122028195,,,,,1.76E+18
-0.004811539,-0.009734196,0.884321311,-0.466752519,0.011337074,-0.040904082,-0.123444205,,,,,1.76E+18
-0.004843475,-0.009714322,0.884338726,-0.466719606,0.0045989,-0.054183468,-0.133231065,,,,,1.76E+18
-0.004888992,-0.009715786,0.884372127,-0.466655807,-0.003736556,-0.114461019,-0.139129171,,,,,1.76E+18
-0.004912414,-0.009722623,0.884393929,-0.466614098,-0.008447079,-0.135448795,-0.106962934,,,,,1.76E+18
-0.00492197,-0.009715894,0.884383129,-0.466634608,-0.01246823,-0.151129636,-0.055187626,,,,,1.76E+18
-0.004907435,-0.009699932,0.884349065,-0.466699646,-0.010950455,-0.158120224,0.005957863,,,,,1.76E+18
-0.004881631,-0.009689347,0.884313115,-0.466768252,-0.009453735,-0.15558917,0.011314044,,,,,1.76E+18
-0.00485661,-0.009698583,0.884276997,-0.466836741,-0.005601043,-0.149858216,-0.003800849,,,,,1.76E+18
-0.004838857,-0.009728799,0.884272222,-0.466845342,-9.53E-05,-0.128158839,-0.084742426,,,,,1.76E+18
-0.004823007,-0.009767952,0.884288465,-0.46681392,0.002004667,-0.125077741,-0.15571712,,,,,1.76E+18
-0.004818394,-0.009783476,0.88429712,-0.466797247,0.004838141,-0.093198107,-0.156059128,,,,,1.76E+18
-0.004824378,-0.009784736,0.884302486,-0.466786993,0.005320839,-0.084561432,-0.146986452,,,,,1.76E+18
-0.004844727,-0.009781642,0.884329663,-0.466735359,0.002814332,-0.102940729,-0.166972806,,,,,1.76E+18
-0.00488001,-0.009774634,0.884390217,-0.466620387,0.001433543,-0.09781847,-0.198990778,,,,,1.76E+18
-0.004927286,-0.009761616,0.884445469,-0.466515429,-0.001551937,-0.091567011,-0.177569406,,,,,1.76E+18
-0.004984886,-0.009733443,0.884455464,-0.466496456,-0.002689332,-0.110843655,-0.145960257,,,,,1.76E+18
-0.005043454,-0.00969958,0.884447522,-0.466511588,-0.004559913,-0.129792603,-0.101240799,,,,,1.76E+18
-0.005090591,-0.009664094,0.884429272,-0.466546411,-0.00539531,-0.227621463,-0.066994829,,,,,1.76E+18
-0.005125894,-0.009620762,0.884407083,-0.466588981,-0.005010475,-0.216510038,-0.025246048,,,,,1.76E+18
-0.005156269,-0.009574203,0.884376917,-0.46664678,-0.003550595,-0.180795835,-0.027324014,,,,,1.76E+18
-0.005146241,-0.009539139,0.884361025,-0.466677724,-0.002543025,-0.091529887,-0.043743666,,,,,1.76E+18
-0.005109079,-0.009502798,0.884365979,-0.466669486,-0.000947359,0.01111702,-0.045340805,,,,,1.76E+18
-0.005087416,-0.009463491,0.884374625,-0.466654137,-0.002770504,0.047892947,-0.017975297,,,,,1.76E+18
-0.005083055,-0.009447459,0.884364908,-0.466672923,-0.005672871,-0.076966172,-0.01249823,,,,,1.76E+18
-0.005066532,-0.009456913,0.884366857,-0.466669219,-0.009001744,-0.140667165,-0.036478912,,,,,1.76E+18
-0.005060714,-0.009520628,0.884364072,-0.466673263,-0.013278209,-0.187955044,-0.046017293,,,,,1.76E+18
-0.005048223,-0.009608136,0.884326655,-0.466742506,-0.015558408,-0.224219505,-0.020099225,,,,,1.76E+18
-0.005017011,-0.009693823,0.884282562,-0.466824604,-0.01570393,-0.184817534,0.020008712,,,,,1.76E+18
-0.004947424,-0.009757942,0.884297268,-0.466796153,-0.012922673,-0.084248058,0.003037112,,,,,1.76E+18
-0.004868544,-0.009833644,0.884342026,-0.466710594,-0.009141007,-0.026430504,-0.034909911,,,,,1.76E+18
-0.004783873,-0.009944705,0.8844137,-0.46657328,-0.008808049,-0.104984729,-0.209877784,,,,,1.76E+18
-0.004725924,-0.010080043,0.884518252,-0.466372728,-0.01460826,-0.16454704,-0.342484283,,,,,1.76E+18
-0.004684117,-0.010180054,0.884660155,-0.466101743,-0.023565028,-0.143174816,-0.353225016,,,,,1.76E+18
-0.004665168,-0.010245396,0.884799348,-0.465836218,-0.027409473,-0.157053529,-0.303184604,,,,,1.76E+18
-0.004649781,-0.010249613,0.884899438,-0.465646121,-0.027076868,-0.05360129,-0.136498465,,,,,1.76E+18
-0.004655882,-0.010185927,0.884888489,-0.465668263,-0.018484674,-0.034834055,0.077610309,,,,,1.76E+18
-0.004698463,-0.010129552,0.884795244,-0.465846211,-0.003368511,-0.119153113,0.157596295,,,,,1.76E+18
-0.004750927,-0.010136062,0.884698133,-0.466029937,0.006780435,-0.188616656,0.076223754,,,,,1.76E+18
-0.004817808,-0.010176972,0.884588365,-0.46623668,0.011080286,-0.221005348,0.039175051,,,,,1.76E+18
-0.004867467,-0.010213042,0.88446124,-0.46647649,0.016721362,-0.16097248,0.090560952,,,,,1.76E+18
-0.004868942,-0.010300795,0.884396247,-0.466597755,0.015239428,-0.103225919,-0.013322749,,,,,1.76E+18
-0.004827865,-0.010408754,0.884385959,-0.466615286,0.008208749,-0.109837167,-0.124297455,,,,,1.76E+18
-0.004742975,-0.010507512,0.884447881,-0.466496563,-0.002850316,-0.080127799,-0.229426545,,,,,1.76E+18
-0.004655023,-0.010608684,0.884550809,-0.46629996,-0.01883886,-0.151251293,-0.287920933,,,,,1.76E+18
-0.004553581,-0.010681893,0.88465758,-0.466096693,-0.027366446,-0.12003026,-0.21859351,,,,,1.76E+18
-0.004449939,-0.010752131,0.884754257,-0.465912539,-0.029834766,-0.021237082,-0.120609302,,,,,1.76E+18
-0.004357108,-0.010791497,0.884756699,-0.46590787,-0.026269536,-0.084661576,0.049965092,,,,,1.76E+18
-0.004232214,-0.010826088,0.884769177,-0.465884522,-0.015117113,0.002558382,0.034955719,,,,,1.76E+18
-0.004163845,-0.010907069,0.884830305,-0.465767141,-0.008507472,-0.110244712,-0.158521013,,,,,1.76E+18
-0.004196403,-0.011043162,0.884899898,-0.46563141,-0.00801227,-0.296187751,-0.332487075,,,,,1.76E+18
-0.004174297,-0.011109913,0.884878819,-0.465670078,-0.008020113,-0.346070131,-0.200020555,,,,,1.76E+18
-0.004165072,-0.011114482,0.884869185,-0.465688357,-0.002922636,-0.100374191,-0.084870254,,,,,1.76E+18
-0.004173243,-0.011174636,0.8849029,-0.465622775,-0.002895146,-0.18889456,-0.199925413,,,,,1.76E+18
-0.004158281,-0.01117969,0.884966961,-0.465501022,-0.000951297,-0.066106809,-0.185237374,,,,,1.76E+18
-0.004147243,-0.011142326,0.884996875,-0.465445142,0.003179504,-0.162525273,-0.238386455,,,,,1.76E+18
-0.004154955,-0.011063677,0.884951899,-0.465532457,0.009100885,-0.208406675,-0.153693584,,,,,1.76E+18
-0.004174352,-0.011029089,0.884898451,-0.46563469,0.009030857,-0.184741829,-0.112577106,,,,,1.76E+18
-0.004230904,-0.011002156,0.884806587,-0.465809355,0.008220555,-0.331211573,-0.088134993,,,,,1.76E+18
-0.004234936,-0.010951383,0.884805379,-0.465812809,0.007499754,-0.064771177,-0.121197834,,,,,1.76E+18
-0.004274654,-0.010903317,0.884817906,-0.465789779,0.008395489,-0.064709357,-0.144569134,,,,,1.76E+18
-0.004259697,-0.010834477,0.884852243,-0.46572629,0.008956891,0.090167177,-0.103306105,,,,,1.76E+18
-0.004253411,-0.010753886,0.884856479,-0.465720167,0.010162069,0.172701877,-0.041764475,,,,,1.76E+18
-0.004294872,-0.010690424,0.884806391,-0.465816401,0.009099077,-0.031184297,-0.019989534,,,,,1.76E+18
-0.004315148,-0.010670557,0.884794162,-0.465839896,0.005579948,-0.120471577,-0.060460471,,,,,1.76E+18
-0.004348525,-0.010698047,0.884816913,-0.465795742,-0.000473843,-0.198724461,-0.146495802,,,,,1.76E+18
-0.004355762,-0.010734312,0.884812269,-0.465803661,-0.006995958,-0.289610253,-0.148980733,,,,,1.76E+18
-0.004332556,-0.010763486,0.884770758,-0.465882047,-0.010946495,-0.247718556,-0.076250968,,,,,1.76E+18
-0.004285681,-0.010759228,0.884712957,-0.465992335,-0.012988504,-0.201889755,0.016187036,,,,,1.76E+18
-0.004233254,-0.010740688,0.884690574,-0.466035735,-0.003940603,-0.043668117,0.0621541,,,,,1.76E+18
-0.004165625,-0.010797988,0.884729694,-0.46596075,0.000234921,-0.062666606,-0.121276636,,,,,1.76E+18
-0.004112755,-0.010868016,0.884789506,-0.465846007,0.001967785,-0.024283284,-0.228640637,,,,,1.76E+18
-0.004095804,-0.010932853,0.884875311,-0.465681631,0.000660329,0.01031751,-0.280208298,,,,,1.76E+18
-0.004115572,-0.010984945,0.884933665,-0.465569332,-0.004373221,-0.14313129,-0.262715652,,,,,1.76E+18
-0.004124361,-0.010989129,0.884960046,-0.465519007,-0.005042663,-0.137687202,-0.163324196,,,,,1.76E+18
-0.004169432,-0.010960417,0.884948035,-0.465542114,-0.005579694,-0.198449339,-0.118878448,,,,,1.76E+18
-0.004200119,-0.010935567,0.884909066,-0.465616492,-0.001676433,-0.276325366,-0.116875112,,,,,1.76E+18
-0.004241613,-0.010912157,0.884856978,-0.465715644,0.002193008,-0.263236528,-0.103279926,,,,,1.76E+18
-0.004265557,-0.010874468,0.884799001,-0.465826447,0.008974007,-0.148309004,-0.067398893,,,,,1.76E+18
-0.004287687,-0.010816195,0.884742067,-0.465935725,0.016415967,-0.045815996,-0.039591815,,,,,1.76E+18
-0.004292682,-0.010754377,0.884701208,-0.466014688,0.021625811,-0.003144104,-0.048161754,,,,,1.76E+18
-0.004295601,-0.010700839,0.884659905,-0.466094295,0.021453992,-0.062825773,-0.085668121,,,,,1.76E+18
-0.004318591,-0.010654642,0.884557203,-0.46629002,0.018918386,-0.29961785,-0.117841499,,,,,1.76E+18
-0.004342857,-0.010649335,0.884493641,-0.466410473,0.013898633,-0.298315519,-0.191759103,,,,,1.76E+18
-0.004306986,-0.010662422,0.884547648,-0.466308075,0.006174474,-0.078771176,-0.217020139,,,,,1.76E+18
-0.004258705,-0.010661243,0.884657907,-0.466099333,-0.002648512,0.169097834,-0.146234051,,,,,1.76E+18
-0.004207687,-0.010642546,0.884755673,-0.465914618,-0.008926331,0.175128499,-0.119808167,,,,,1.76E+18
